
time,gFx,gFy,gFz,ax,ay,az,wx,wy,wz,
0.013617,0.1273,0.2224,0.9510,0.0000,0.0000,0.0000,0.0000,0.0000,0.0000,
0.041969,0.1048,0.2340,0.9511,0.0000,0.0000,0.0000,0.0000,0.0000,0.0000,
0.043834,0.0943,0.2504,0.9507,0.0000,0.0000,0.0000,0.0000,0.0000,0.0000,
0.044928,0.0949,0.2860,0.9091,0.0000,0.0000,0.0000,0.0000,0.0000,0.0000,
0.046073,0.0739,0.2927,0.9080,0.0000,0.0000,0.0000,0.0000,0.0000,0.0000,
0.047440,0.0739,0.2927,0.9080,-1.5015,-7.0700,-2.5442,0.0000,0.0000,0.0000,
0.049145,0.0555,0.2895,0.9112,-1.5015,-7.0700,-2.5442,0.0000,0.0000,0.0000,
0.050481,0.0375,0.2855,0.9267,-1.5015,-7.0700,-2.5442,0.0000,0.0000,0.0000,
0.051657,0.0391,0.2720,0.9499,-1.5015,-7.0700,-2.5442,0.0000,0.0000,0.0000,
0.053476,0.0782,0.2454,0.9605,-1.5015,-7.0700,-2.5442,0.0000,0.0000,0.0000,
0.055204,0.1042,0.2223,0.9383,-1.5015,-7.0700,-2.5442,0.0000,0.0000,0.0000,
0.056704,0.1230,0.2119,0.9748,-1.5015,-7.0700,-2.5442,0.0000,0.0000,0.0000,
0.057945,0.1230,0.2119,0.9748,-0.0331,-0.0711,-0.3017,0.0000,0.0000,0.0000,
0.059218,0.1485,0.2069,1.0117,-0.0331,-0.0711,-0.3017,0.0000,0.0000,0.0000,
0.060149,0.1485,0.2069,1.0117,-0.0331,-0.0711,-0.3017,-1.3175,-1.1522,1.0979,
0.061167,0.1808,0.2042,1.0503,-0.0331,-0.0711,-0.3017,-1.3175,-1.1522,1.0979,
0.063033,0.2096,0.2047,1.0856,-0.0331,-0.0711,-0.3017,-1.3175,-1.1522,1.0979,
0.069012,0.2437,0.2035,1.1079,-0.0331,-0.0711,-0.3017,-1.3175,-1.1522,1.0979,
0.070540,0.2577,0.1954,1.1278,-0.0331,-0.0711,-0.3017,-1.3175,-1.1522,1.0979,
0.071443,0.2577,0.1954,1.1278,1.0353,0.0270,1.3331,-1.3175,-1.1522,1.0979,
0.074783,0.2499,0.1905,1.1647,1.0353,0.0270,1.3331,-1.3175,-1.1522,1.0979,
0.078438,0.2333,0.1842,1.1960,1.0353,0.0270,1.3331,-1.3175,-1.1522,1.0979,
0.082387,0.2230,0.1790,1.2089,1.0353,0.0270,1.3331,-1.3175,-1.1522,1.0979,
0.088464,0.2172,0.1718,1.2025,1.0353,0.0270,1.3331,-1.3175,-1.1522,1.0979,
0.090378,0.2165,0.1665,1.1900,1.0353,0.0270,1.3331,-1.3175,-1.1522,1.0979,
0.091378,0.2165,0.1665,1.1900,0.6060,-0.0712,2.2456,-1.3175,-1.1522,1.0979,
0.094408,0.2178,0.1608,1.1704,0.6060,-0.0712,2.2456,-1.3175,-1.1522,1.0979,
0.097959,0.2190,0.1539,1.1495,0.6060,-0.0712,2.2456,-1.3175,-1.1522,1.0979,
0.102655,0.2393,0.1355,1.1215,0.6060,-0.0712,2.2456,-1.3175,-1.1522,1.0979,
0.108711,0.2842,0.1082,1.0994,0.6060,-0.0712,2.2456,-1.3175,-1.1522,1.0979,
0.109948,0.3810,0.0534,1.0733,0.6060,-0.0712,2.2456,-1.3175,-1.1522,1.0979,
0.110490,0.3810,0.0534,1.0733,1.1899,-0.6110,1.2335,-1.3175,-1.1522,1.0979,
0.113952,0.4873,-0.0006,1.0579,1.1899,-0.6110,1.2335,-1.3175,-1.1522,1.0979,
0.117926,0.6024,-0.0453,1.0524,1.1899,-0.6110,1.2335,-1.3175,-1.1522,1.0979,
0.119754,0.6024,-0.0453,1.0524,1.1899,-0.6110,1.2335,1.0389,-0.5924,0.6263,
0.121679,0.6891,-0.0621,1.0265,1.1899,-0.6110,1.2335,1.0389,-0.5924,0.6263,
0.128535,0.6435,-0.0187,0.9828,1.1899,-0.6110,1.2335,1.0389,-0.5924,0.6263,
0.129723,0.4632,0.0742,0.9352,1.1899,-0.6110,1.2335,1.0389,-0.5924,0.6263,
0.130167,0.4632,0.0742,0.9352,4.6430,-1.9155,0.1116,1.0389,-0.5924,0.6263,
0.133678,0.2943,0.1508,0.9049,4.6430,-1.9155,0.1116,1.0389,-0.5924,0.6263,
0.137653,0.1629,0.2182,0.8678,4.6430,-1.9155,0.1116,1.0389,-0.5924,0.6263,
0.141888,0.0932,0.2535,0.8382,4.6430,-1.9155,0.1116,1.0389,-0.5924,0.6263,
0.148041,0.0518,0.2685,0.8014,4.6430,-1.9155,0.1116,1.0389,-0.5924,0.6263,
0.149852,0.0313,0.2732,0.7669,4.6430,-1.9155,0.1116,1.0389,-0.5924,0.6263,
0.150439,0.0313,0.2732,0.7669,-1.3909,0.7007,-1.5862,1.0389,-0.5924,0.6263,
0.153777,0.0318,0.2715,0.7656,-1.3909,0.7007,-1.5862,1.0389,-0.5924,0.6263,
0.158968,0.0533,0.2593,0.7821,-1.3909,0.7007,-1.5862,1.0389,-0.5924,0.6263,
0.161526,0.0745,0.2477,0.7894,-1.3909,0.7007,-1.5862,1.0389,-0.5924,0.6263,
0.167652,0.0930,0.2412,0.7925,-1.3909,0.7007,-1.5862,1.0389,-0.5924,0.6263,
0.169408,0.1060,0.2450,0.7934,-1.3909,0.7007,-1.5862,1.0389,-0.5924,0.6263,
0.169951,0.1060,0.2450,0.7934,-1.0972,0.2663,-1.6139,1.0389,-0.5924,0.6263,
0.173536,0.1135,0.2587,0.7923,-1.0972,0.2663,-1.6139,1.0389,-0.5924,0.6263,
0.177543,0.1231,0.2722,0.7832,-1.0972,0.2663,-1.6139,1.0389,-0.5924,0.6263,
0.181407,0.1246,0.2871,0.7714,-1.0972,0.2663,-1.6139,1.0389,-0.5924,0.6263,
0.187688,0.1266,0.2970,0.7544,-1.0972,0.2663,-1.6139,1.0389,-0.5924,0.6263,
0.188242,0.1266,0.2970,0.7544,-1.0972,0.2663,-1.6139,0.1608,-0.2901,-0.5733,
0.190107,0.1300,0.3041,0.7337,-1.0972,0.2663,-1.6139,0.1608,-0.2901,-0.5733,
0.191227,0.1300,0.3041,0.7337,-1.1218,0.7075,-1.8926,0.1608,-0.2901,-0.5733,
0.193384,0.1353,0.3051,0.7108,-1.1218,0.7075,-1.8926,0.1608,-0.2901,-0.5733,
0.197236,0.1351,0.3099,0.6971,-1.1218,0.7075,-1.8926,0.1608,-0.2901,-0.5733,
0.201244,0.1285,0.3140,0.6868,-1.1218,0.7075,-1.8926,0.1608,-0.2901,-0.5733,
0.207755,0.1217,0.3172,0.6811,-1.1218,0.7075,-1.8926,0.1608,-0.2901,-0.5733,
0.209290,0.1128,0.3199,0.6778,-1.1218,0.7075,-1.8926,0.1608,-0.2901,-0.5733,
0.209956,0.1128,0.3199,0.6778,-1.1975,0.8468,-2.5832,0.1608,-0.2901,-0.5733,
0.213146,0.1043,0.3183,0.6788,-1.1975,0.8468,-2.5832,0.1608,-0.2901,-0.5733,
0.217168,0.0977,0.3106,0.6920,-1.1975,0.8468,-2.5832,0.1608,-0.2901,-0.5733,
0.221077,0.1016,0.2982,0.7286,-1.1975,0.8468,-2.5832,0.1608,-0.2901,-0.5733,
0.227370,0.1166,0.2777,0.7690,-1.1975,0.8468,-2.5832,0.1608,-0.2901,-0.5733,
0.228962,0.1309,0.2561,0.8045,-1.1975,0.8468,-2.5832,0.1608,-0.2901,-0.5733,
0.229571,0.1309,0.2561,0.8045,-1.1206,0.4596,-1.7507,0.1608,-0.2901,-0.5733,
0.233015,0.1434,0.2381,0.8314,-1.1206,0.4596,-1.7507,0.1608,-0.2901,-0.5733,
0.237110,0.1369,0.2280,0.8545,-1.1206,0.4596,-1.7507,0.1608,-0.2901,-0.5733,
0.241555,0.1305,0.2298,0.8757,-1.1206,0.4596,-1.7507,0.1608,-0.2901,-0.5733,
0.247227,0.1249,0.2440,0.9014,-1.1206,0.4596,-1.7507,0.1608,-0.2901,-0.5733,
0.249516,0.1143,0.2628,0.9128,-1.1206,0.4596,-1.7507,0.1608,-0.2901,-0.5733,
0.250132,0.1143,0.2628,0.9128,-0.8638,0.2045,-0.5066,0.1608,-0.2901,-0.5733,
0.250643,0.1143,0.2628,0.9128,-0.8638,0.2045,-0.5066,-0.7541,0.0070,0.0707,
0.252890,0.0986,0.2722,0.9298,-0.8638,0.2045,-0.5066,-0.7541,0.0070,0.0707,
0.256992,0.0952,0.2697,0.9691,-0.8638,0.2045,-0.5066,-0.7541,0.0070,0.0707,
0.261073,0.1221,0.2547,1.0140,-0.8638,0.2045,-0.5066,-0.7541,0.0070,0.0707,
0.267124,0.1845,0.2339,1.0632,-0.8638,0.2045,-0.5066,-0.7541,0.0070,0.0707,
0.268475,0.2592,0.2145,1.1095,-0.8638,0.2045,-0.5066,-0.7541,0.0070,0.0707,
0.269074,0.2592,0.2145,1.1095,-0.1976,0.2391,1.0329,-0.7541,0.0070,0.0707,
0.273166,0.3155,0.2054,1.1467,-0.1976,0.2391,1.0329,-0.7541,0.0070,0.0707,
0.277042,0.3618,0.1957,1.1605,-0.1976,0.2391,1.0329,-0.7541,0.0070,0.0707,
0.280599,0.3998,0.1804,1.0935,-0.1976,0.2391,1.0329,-0.7541,0.0070,0.0707,
0.287146,0.4247,0.1685,0.9827,-0.1976,0.2391,1.0329,-0.7541,0.0070,0.0707,
0.289686,0.4549,0.1533,0.9734,-0.1976,0.2391,1.0329,-0.7541,0.0070,0.0707,
0.290772,0.4549,0.1533,0.9734,1.9742,-0.3254,0.2613,-0.7541,0.0070,0.0707,
0.292724,0.4576,0.1404,1.0061,1.9742,-0.3254,0.2613,-0.7541,0.0070,0.0707,
0.296714,0.4342,0.1353,1.0018,1.9742,-0.3254,0.2613,-0.7541,0.0070,0.0707,
0.300470,0.3983,0.1408,0.9522,1.9742,-0.3254,0.2613,-0.7541,0.0070,0.0707,
0.307565,0.3680,0.1531,0.9281,1.9742,-0.3254,0.2613,-0.7541,0.0070,0.0707,
0.308671,0.3279,0.1710,0.9414,1.9742,-0.3254,0.2613,-0.7541,0.0070,0.0707,
0.309198,0.3279,0.1710,0.9414,1.3439,-0.4911,-0.2548,-0.7541,0.0070,0.0707,
0.312345,0.2847,0.1869,0.9698,1.3439,-0.4911,-0.2548,-0.7541,0.0070,0.0707,
0.316507,0.2336,0.2044,0.9986,1.3439,-0.4911,-0.2548,-0.7541,0.0070,0.0707,
0.316985,0.2336,0.2044,0.9986,1.3439,-0.4911,-0.2548,-0.2949,0.5538,-0.5214,
0.320301,0.1946,0.2139,1.0203,1.3439,-0.4911,-0.2548,-0.2949,0.5538,-0.5214,
0.328230,0.1638,0.2187,1.0322,1.3439,-0.4911,-0.2548,-0.2949,0.5538,-0.5214,
0.330067,0.1638,0.2187,1.0322,-0.5710,0.1509,0.7535,-0.2949,0.5538,-0.5214,
0.330680,0.1337,0.2180,1.0330,-0.5710,0.1509,0.7535,-0.2949,0.5538,-0.5214,
0.332878,0.1150,0.2138,1.0267,-0.5710,0.1509,0.7535,-0.2949,0.5538,-0.5214,
0.336525,0.1013,0.2107,1.0197,-0.5710,0.1509,0.7535,-0.2949,0.5538,-0.5214,
0.340876,0.0912,0.2065,1.0178,-0.5710,0.1509,0.7535,-0.2949,0.5538,-0.5214,
0.346583,0.0857,0.2042,1.0163,-0.5710,0.1509,0.7535,-0.2949,0.5538,-0.5214,
0.348006,0.0864,0.2023,1.0199,-0.5710,0.1509,0.7535,-0.2949,0.5538,-0.5214,
0.348422,0.0864,0.2023,1.0199,-1.2176,0.0306,0.5643,-0.2949,0.5538,-0.5214,
0.352111,0.0953,0.1988,1.0288,-1.2176,0.0306,0.5643,-0.2949,0.5538,-0.5214,
0.357418,0.1095,0.1974,1.0428,-1.2176,0.0306,0.5643,-0.2949,0.5538,-0.5214,
0.360450,0.1256,0.1961,1.0576,-1.2176,0.0306,0.5643,-0.2949,0.5538,-0.5214,
0.366534,0.1453,0.1922,1.0789,-1.2176,0.0306,0.5643,-0.2949,0.5538,-0.5214,
0.367924,0.1702,0.1879,1.1030,-1.2176,0.0306,0.5643,-0.2949,0.5538,-0.5214,
0.368339,0.1702,0.1879,1.1030,-0.4595,-0.0638,1.1322,-0.2949,0.5538,-0.5214,
0.373153,0.1938,0.1833,1.1236,-0.4595,-0.0638,1.1322,-0.2949,0.5538,-0.5214,
0.376206,0.2197,0.1779,1.1432,-0.4595,-0.0638,1.1322,-0.2949,0.5538,-0.5214,
0.380011,0.2509,0.1705,1.1680,-0.4595,-0.0638,1.1322,-0.2949,0.5538,-0.5214,
0.381971,0.2509,0.1705,1.1680,-0.4595,-0.0638,1.1322,-0.0342,0.6032,0.1458,
0.386209,0.2754,0.1663,1.1858,-0.4595,-0.0638,1.1322,-0.0342,0.6032,0.1458,
0.387822,0.3070,0.1665,1.2004,-0.4595,-0.0638,1.1322,-0.0342,0.6032,0.1458,
0.388245,0.3070,0.1665,1.2004,0.9511,-0.2602,2.1457,-0.0342,0.6032,0.1458,
0.392146,0.3283,0.1664,1.2079,0.9511,-0.2602,2.1457,-0.0342,0.6032,0.1458,
0.396114,0.3467,0.1697,1.2052,0.9511,-0.2602,2.1457,-0.0342,0.6032,0.1458,
0.399830,0.3595,0.1722,1.1902,0.9511,-0.2602,2.1457,-0.0342,0.6032,0.1458,
0.406259,0.3704,0.1743,1.1758,0.9511,-0.2602,2.1457,-0.0342,0.6032,0.1458,
0.408042,0.3768,0.1792,1.1613,0.9511,-0.2602,2.1457,-0.0342,0.6032,0.1458,
0.408793,0.3768,0.1792,1.1613,1.9761,-0.1802,2.0287,-0.0342,0.6032,0.1458,
0.411791,0.3760,0.1827,1.1476,1.9761,-0.1802,2.0287,-0.0342,0.6032,0.1458,
0.416161,0.3643,0.1879,1.1293,1.9761,-0.1802,2.0287,-0.0342,0.6032,0.1458,
0.419808,0.3466,0.1934,1.1136,1.9761,-0.1802,2.0287,-0.0342,0.6032,0.1458,
0.426048,0.3250,0.1955,1.0970,1.9761,-0.1802,2.0287,-0.0342,0.6032,0.1458,
0.427568,0.3022,0.1949,1.0819,1.9761,-0.1802,2.0287,-0.0342,0.6032,0.1458,
0.428029,0.3022,0.1949,1.0819,1.5941,-0.0158,1.2542,-0.0342,0.6032,0.1458,
0.432105,0.2816,0.1934,1.0670,1.5941,-0.0158,1.2542,-0.0342,0.6032,0.1458,
0.435723,0.2570,0.1960,1.0532,1.5941,-0.0158,1.2542,-0.0342,0.6032,0.1458,
0.439939,0.2379,0.2008,1.0488,1.5941,-0.0158,1.2542,-0.0342,0.6032,0.1458,
0.446346,0.2207,0.2079,1.0401,1.5941,-0.0158,1.2542,-0.0342,0.6032,0.1458,
0.447390,0.2074,0.2187,1.0321,1.5941,-0.0158,1.2542,-0.0342,0.6032,0.1458,
0.447886,0.2074,0.2187,1.0321,1.5941,-0.0158,1.2542,0.5740,0.1682,-0.5601,
0.448296,0.2074,0.2187,1.0321,0.6274,-0.0030,0.7167,0.5740,0.1682,-0.5601,
0.451683,0.1957,0.2254,1.0214,0.6274,-0.0030,0.7167,0.5740,0.1682,-0.5601,
0.456317,0.1852,0.2314,1.0125,0.6274,-0.0030,0.7167,0.5740,0.1682,-0.5601,
0.459910,0.1643,0.2350,0.9999,0.6274,-0.0030,0.7167,0.5740,0.1682,-0.5601,
0.465808,0.1568,0.2421,0.9912,0.6274,-0.0030,0.7167,0.5740,0.1682,-0.5601,
0.467165,0.1441,0.2474,0.9805,0.6274,-0.0030,0.7167,0.5740,0.1682,-0.5601,
0.467536,0.1441,0.2474,0.9805,0.0540,0.2115,0.2554,0.5740,0.1682,-0.5601,
0.471140,0.1393,0.2548,0.9760,0.0540,0.2115,0.2554,0.5740,0.1682,-0.5601,
0.476158,0.1389,0.2637,0.9749,0.0540,0.2115,0.2554,0.5740,0.1682,-0.5601,
0.479224,0.1423,0.2755,0.9762,0.0540,0.2115,0.2554,0.5740,0.1682,-0.5601,
0.485488,0.1432,0.2820,0.9756,0.0540,0.2115,0.2554,0.5740,0.1682,-0.5601,
0.487016,0.1465,0.2832,0.9732,0.0540,0.2115,0.2554,0.5740,0.1682,-0.5601,
0.487416,0.1465,0.2832,0.9732,-0.0107,0.4284,0.1290,0.5740,0.1682,-0.5601,
0.491697,0.1542,0.2768,0.9726,-0.0107,0.4284,0.1290,0.5740,0.1682,-0.5601,
0.495169,0.1666,0.2696,0.9741,-0.0107,0.4284,0.1290,0.5740,0.1682,-0.5601,
0.499119,0.1792,0.2613,0.9798,-0.0107,0.4284,0.1290,0.5740,0.1682,-0.5601,
0.506609,0.1968,0.2538,0.9909,-0.0107,0.4284,0.1290,0.5740,0.1682,-0.5601,
0.507763,0.2094,0.2482,1.0025,-0.0107,0.4284,0.1290,0.5740,0.1682,-0.5601,
0.508353,0.2094,0.2482,1.0025,0.5854,0.0277,0.2959,0.5740,0.1682,-0.5601,
0.511075,0.2096,0.2551,1.0096,0.5854,0.0277,0.2959,0.5740,0.1682,-0.5601,
0.512940,0.2096,0.2551,1.0096,0.5854,0.0277,0.2959,0.3610,0.7285,-0.4691,
0.515084,0.2079,0.2653,1.0083,0.5854,0.0277,0.2959,0.3610,0.7285,-0.4691,
0.518890,0.2071,0.2765,0.9986,0.5854,0.0277,0.2959,0.3610,0.7285,-0.4691,
0.525445,0.2091,0.2877,0.9894,0.5854,0.0277,0.2959,0.3610,0.7285,-0.4691,
0.526830,0.2135,0.2938,0.9847,0.5854,0.0277,0.2959,0.3610,0.7285,-0.4691,
0.527257,0.2135,0.2938,0.9847,0.7893,0.2792,0.2985,0.3610,0.7285,-0.4691,
0.530696,0.2130,0.2986,0.9807,0.7893,0.2792,0.2985,0.3610,0.7285,-0.4691,
0.534826,0.2138,0.3064,0.9792,0.7893,0.2792,0.2985,0.3610,0.7285,-0.4691,
0.539188,0.2082,0.3163,0.9814,0.7893,0.2792,0.2985,0.3610,0.7285,-0.4691,
0.545473,0.1956,0.3233,0.9911,0.7893,0.2792,0.2985,0.3610,0.7285,-0.4691,
0.546600,0.1692,0.3256,1.0043,0.7893,0.2792,0.2985,0.3610,0.7285,-0.4691,
0.547010,0.1692,0.3256,1.0043,0.8214,0.5236,0.3255,0.3610,0.7285,-0.4691,
0.550526,0.1398,0.3254,1.0130,0.8214,0.5236,0.3255,0.3610,0.7285,-0.4691,
0.555860,0.1115,0.3168,1.0177,0.8214,0.5236,0.3255,0.3610,0.7285,-0.4691,
0.558903,0.0953,0.3060,1.0201,0.8214,0.5236,0.3255,0.3610,0.7285,-0.4691,
0.565061,0.0975,0.2942,1.0256,0.8214,0.5236,0.3255,0.3610,0.7285,-0.4691,
0.566464,0.1158,0.2837,1.0274,0.8214,0.5236,0.3255,0.3610,0.7285,-0.4691,
0.566857,0.1158,0.2837,1.0274,0.0311,0.1695,0.6595,0.3610,0.7285,-0.4691,
0.570401,0.1426,0.2673,1.0184,0.0311,0.1695,0.6595,0.3610,0.7285,-0.4691,
0.574794,0.1573,0.2577,1.0187,0.0311,0.1695,0.6595,0.3610,0.7285,-0.4691,
0.578629,0.1731,0.2446,1.0072,0.0311,0.1695,0.6595,0.3610,0.7285,-0.4691,
0.579286,0.1731,0.2446,1.0072,0.0311,0.1695,0.6595,-0.1020,0.7511,-0.2198,
0.584771,0.1890,0.2388,0.9901,0.0311,0.1695,0.6595,-0.1020,0.7511,-0.2198,
0.586261,0.2078,0.2388,0.9632,0.0311,0.1695,0.6595,-0.1020,0.7511,-0.2198,
0.586627,0.2078,0.2388,0.9632,1.0492,-0.3899,0.3115,-0.1020,0.7511,-0.2198,
0.590730,0.2297,0.2493,0.9368,1.0492,-0.3899,0.3115,-0.1020,0.7511,-0.2198,
0.594525,0.2987,0.2880,0.9114,1.0492,-0.3899,0.3115,-0.1020,0.7511,-0.2198,
0.598244,0.4290,0.3434,0.8818,1.0492,-0.3899,0.3115,-0.1020,0.7511,-0.2198,
0.605776,0.4328,0.3677,0.8628,1.0492,-0.3899,0.3115,-0.1020,0.7511,-0.2198,
0.606887,0.3700,0.3542,0.8363,1.0492,-0.3899,0.3115,-0.1020,0.7511,-0.2198,
0.607617,0.3700,0.3542,0.8363,3.4927,0.8783,-0.9495,-0.1020,0.7511,-0.2198,
0.610507,0.3027,0.3267,0.8289,3.4927,0.8783,-0.9495,-0.1020,0.7511,-0.2198,
0.614140,0.2079,0.2978,0.8221,3.4927,0.8783,-0.9495,-0.1020,0.7511,-0.2198,
0.618195,0.1359,0.2942,0.8280,3.4927,0.8783,-0.9495,-0.1020,0.7511,-0.2198,
0.625216,0.0698,0.3021,0.8505,3.4927,0.8783,-0.9495,-0.1020,0.7511,-0.2198,
0.626383,0.0381,0.3011,0.8740,3.4927,0.8783,-0.9495,-0.1020,0.7511,-0.2198,
0.626852,0.0381,0.3011,0.8740,0.0437,0.2479,-1.0794,-0.1020,0.7511,-0.2198,
0.630101,0.0389,0.2845,0.8858,0.0437,0.2479,-1.0794,-0.1020,0.7511,-0.2198,
0.634292,0.0487,0.2644,0.8968,0.0437,0.2479,-1.0794,-0.1020,0.7511,-0.2198,
0.639200,0.0596,0.2427,0.9039,0.0437,0.2479,-1.0794,-0.1020,0.7511,-0.2198,
0.644691,0.0559,0.2322,0.9139,0.0437,0.2479,-1.0794,-0.1020,0.7511,-0.2198,
0.645798,0.0559,0.2322,0.9139,0.0437,0.2479,-1.0794,-0.9949,0.9309,-0.7340,
0.646436,0.0347,0.2293,0.9283,0.0437,0.2479,-1.0794,-0.9949,0.9309,-0.7340,
0.647209,0.0347,0.2293,0.9283,-0.0048,-0.3555,-0.4807,-0.9949,0.9309,-0.7340,
0.650359,0.0063,0.2307,0.9449,-0.0048,-0.3555,-0.4807,-0.9949,0.9309,-0.7340,
0.654388,-0.0206,0.2363,0.9615,-0.0048,-0.3555,-0.4807,-0.9949,0.9309,-0.7340,
0.658239,-0.0559,0.2463,0.9736,-0.0048,-0.3555,-0.4807,-0.9949,0.9309,-0.7340,
0.664530,-0.0826,0.2507,0.9806,-0.0048,-0.3555,-0.4807,-0.9949,0.9309,-0.7340,
0.666019,-0.1122,0.2581,0.9886,-0.0048,-0.3555,-0.4807,-0.9949,0.9309,-0.7340,
0.666496,-0.1122,0.2581,0.9886,-1.1909,-0.0147,0.1171,-0.9949,0.9309,-0.7340,
0.669805,-0.1462,0.2633,0.9960,-1.1909,-0.0147,0.1171,-0.9949,0.9309,-0.7340,
0.676097,-0.1812,0.2697,1.0079,-1.1909,-0.0147,0.1171,-0.9949,0.9309,-0.7340,
0.677804,-0.2134,0.2697,1.0206,-1.1909,-0.0147,0.1171,-0.9949,0.9309,-0.7340,
0.684386,-0.2436,0.2680,1.0307,-1.1909,-0.0147,0.1171,-0.9949,0.9309,-0.7340,
0.685416,-0.2856,0.2619,1.0273,-1.1909,-0.0147,0.1171,-0.9949,0.9309,-0.7340,
0.686067,-0.2856,0.2619,1.0273,-2.5798,0.3271,0.5578,-0.9949,0.9309,-0.7340,
0.690022,-0.3066,0.2588,1.0219,-2.5798,0.3271,0.5578,-0.9949,0.9309,-0.7340,
0.693787,-0.3379,0.2634,1.0155,-2.5798,0.3271,0.5578,-0.9949,0.9309,-0.7340,
0.697864,-0.3572,0.2772,1.0251,-2.5798,0.3271,0.5578,-0.9949,0.9309,-0.7340,
0.704026,-0.3813,0.2979,1.0603,-2.5798,0.3271,0.5578,-0.9949,0.9309,-0.7340,
0.706185,-0.3939,0.3195,1.0981,-2.5798,0.3271,0.5578,-0.9949,0.9309,-0.7340,
0.707398,-0.3939,0.3195,1.0981,-3.8013,0.7616,0.8154,-0.9949,0.9309,-0.7340,
0.710145,-0.3940,0.3388,1.1169,-3.8013,0.7616,0.8154,-0.9949,0.9309,-0.7340,
0.710849,-0.3940,0.3388,1.1169,-3.8013,0.7616,0.8154,-0.4355,-0.2687,-0.0353,
0.713383,-0.3833,0.3489,1.1340,-3.8013,0.7616,0.8154,-0.4355,-0.2687,-0.0353,
0.717404,-0.3533,0.3511,1.1514,-3.8013,0.7616,0.8154,-0.4355,-0.2687,-0.0353,
0.724068,-0.3186,0.3496,1.1663,-3.8013,0.7616,0.8154,-0.4355,-0.2687,-0.0353,
0.725482,-0.2706,0.3312,1.1844,-3.8013,0.7616,0.8154,-0.4355,-0.2687,-0.0353,
0.726090,-0.2706,0.3312,1.1844,-3.1773,1.3710,1.8331,-0.4355,-0.2687,-0.0353,
0.729390,-0.2207,0.3022,1.1945,-3.1773,1.3710,1.8331,-0.4355,-0.2687,-0.0353,
0.733247,-0.1640,0.2590,1.1800,-3.1773,1.3710,1.8331,-0.4355,-0.2687,-0.0353,
0.737169,-0.1182,0.2185,1.1565,-3.1773,1.3710,1.8331,-0.4355,-0.2687,-0.0353,
0.743884,-0.0833,0.1801,1.1283,-3.1773,1.3710,1.8331,-0.4355,-0.2687,-0.0353,
0.745210,-0.0496,0.1469,1.0926,-3.1773,1.3710,1.8331,-0.4355,-0.2687,-0.0353,
0.745644,-0.0496,0.1469,1.0926,-0.8723,-0.2736,1.4480,-0.4355,-0.2687,-0.0353,
0.749055,-0.0204,0.1283,1.0612,-0.8723,-0.2736,1.4480,-0.4355,-0.2687,-0.0353,
0.753198,0.0071,0.1136,1.0295,-0.8723,-0.2736,1.4480,-0.4355,-0.2687,-0.0353,
0.757546,0.0278,0.1120,1.0098,-0.8723,-0.2736,1.4480,-0.4355,-0.2687,-0.0353,
0.764048,0.0413,0.1175,0.9954,-0.8723,-0.2736,1.4480,-0.4355,-0.2687,-0.0353,
0.765011,0.0422,0.1274,0.9843,-0.8723,-0.2736,1.4480,-0.4355,-0.2687,-0.0353,
0.765680,0.0422,0.1274,0.9843,0.3460,-0.9564,0.1696,-0.4355,-0.2687,-0.0353,
0.769097,0.0350,0.1349,0.9758,0.3460,-0.9564,0.1696,-0.4355,-0.2687,-0.0353,
0.773440,0.0209,0.1413,0.9654,0.3460,-0.9564,0.1696,-0.4355,-0.2687,-0.0353,
0.775142,0.0209,0.1413,0.9654,0.3460,-0.9564,0.1696,0.3088,-0.4166,0.1110,
0.777085,0.0080,0.1469,0.9546,0.3460,-0.9564,0.1696,0.3088,-0.4166,0.1110,
0.783134,-0.0047,0.1515,0.9412,0.3460,-0.9564,0.1696,0.3088,-0.4166,0.1110,
0.784872,-0.0090,0.1523,0.9285,0.3460,-0.9564,0.1696,0.3088,-0.4166,0.1110,
0.785245,-0.0090,0.1523,0.9285,-0.1236,-0.6932,-0.3439,0.3088,-0.4166,0.1110,
0.789321,-0.0105,0.1535,0.9211,-0.1236,-0.6932,-0.3439,0.3088,-0.4166,0.1110,
0.793139,-0.0134,0.1551,0.9157,-0.1236,-0.6932,-0.3439,0.3088,-0.4166,0.1110,
0.796874,-0.0098,0.1546,0.9087,-0.1236,-0.6932,-0.3439,0.3088,-0.4166,0.1110,
0.803177,-0.0084,0.1518,0.9037,-0.1236,-0.6932,-0.3439,0.3088,-0.4166,0.1110,
0.805230,-0.0088,0.1503,0.9029,-0.1236,-0.6932,-0.3439,0.3088,-0.4166,0.1110,
0.806211,-0.0088,0.1503,0.9029,-0.2029,-0.7384,-0.7056,0.3088,-0.4166,0.1110,
0.809132,-0.0136,0.1465,0.9052,-0.2029,-0.7384,-0.7056,0.3088,-0.4166,0.1110,
0.812874,-0.0243,0.1397,0.9088,-0.2029,-0.7384,-0.7056,0.3088,-0.4166,0.1110,
0.816592,-0.0407,0.1311,0.9167,-0.2029,-0.7384,-0.7056,0.3088,-0.4166,0.1110,
0.823394,-0.0566,0.1256,0.9259,-0.2029,-0.7384,-0.7056,0.3088,-0.4166,0.1110,
0.824768,-0.0748,0.1205,0.9318,-0.2029,-0.7384,-0.7056,0.3088,-0.4166,0.1110,
0.825342,-0.0748,0.1205,0.9318,-0.6693,-0.9841,-0.4921,0.3088,-0.4166,0.1110,
0.828728,-0.0832,0.1248,0.9388,-0.6693,-0.9841,-0.4921,0.3088,-0.4166,0.1110,
0.832543,-0.0852,0.1269,0.9419,-0.6693,-0.9841,-0.4921,0.3088,-0.4166,0.1110,
0.836443,-0.0758,0.1231,0.9445,-0.6693,-0.9841,-0.4921,0.3088,-0.4166,0.1110,
0.843133,-0.0431,0.1038,0.9292,-0.6693,-0.9841,-0.4921,0.3088,-0.4166,0.1110,
0.844232,-0.0431,0.1038,0.9292,-0.6693,-0.9841,-0.4921,-0.2614,-0.1353,0.2511,
0.844707,-0.0022,0.0754,0.9115,-0.6693,-0.9841,-0.4921,-0.2614,-0.1353,0.2511,
0.845090,-0.0022,0.0754,0.9115,-0.5060,-1.1391,-0.4770,-0.2614,-0.1353,0.2511,
0.848242,0.0273,0.0593,0.8931,-0.5060,-1.1391,-0.4770,-0.2614,-0.1353,0.2511,
0.852311,0.0478,0.0476,0.8629,-0.5060,-1.1391,-0.4770,-0.2614,-0.1353,0.2511,
0.857576,0.0504,0.0594,0.8461,-0.5060,-1.1391,-0.4770,-0.2614,-0.1353,0.2511,
0.862984,0.0329,0.0860,0.8413,-0.5060,-1.1391,-0.4770,-0.2614,-0.1353,0.2511,
0.864328,0.0086,0.1166,0.8572,-0.5060,-1.1391,-0.4770,-0.2614,-0.1353,0.2511,
0.864763,0.0086,0.1166,0.8572,0.2472,-1.2366,-1.3597,-0.2614,-0.1353,0.2511,
0.868452,-0.0171,0.1499,0.8899,0.2472,-1.2366,-1.3597,-0.2614,-0.1353,0.2511,
0.872703,-0.0413,0.1854,0.9306,0.2472,-1.2366,-1.3597,-0.2614,-0.1353,0.2511,
0.876584,-0.0489,0.2085,0.9549,0.2472,-1.2366,-1.3597,-0.2614,-0.1353,0.2511,
0.882836,-0.0498,0.2248,0.9752,0.2472,-1.2366,-1.3597,-0.2614,-0.1353,0.2511,
0.883967,-0.0438,0.2306,0.9877,0.2472,-1.2366,-1.3597,-0.2614,-0.1353,0.2511,
0.884347,-0.0438,0.2306,0.9877,-0.5258,0.2231,-0.0639,-0.2614,-0.1353,0.2511,
0.889048,-0.0358,0.2276,1.0006,-0.5258,0.2231,-0.0639,-0.2614,-0.1353,0.2511,
0.892665,-0.0250,0.2188,1.0183,-0.5258,0.2231,-0.0639,-0.2614,-0.1353,0.2511,
0.896149,-0.0065,0.1984,1.0322,-0.5258,0.2231,-0.0639,-0.2614,-0.1353,0.2511,
0.902379,0.0118,0.1804,1.0361,-0.5258,0.2231,-0.0639,-0.2614,-0.1353,0.2511,
0.904888,0.0384,0.1550,1.0344,-0.5258,0.2231,-0.0639,-0.2614,-0.1353,0.2511,
0.905868,0.0384,0.1550,1.0344,-0.1083,-0.1128,0.5252,-0.2614,-0.1353,0.2511,
0.906423,0.0384,0.1550,1.0344,-0.1083,-0.1128,0.5252,-0.2642,-0.7564,0.1705,
0.908100,0.0642,0.1384,1.0329,-0.1083,-0.1128,0.5252,-0.2642,-0.7564,0.1705,
0.912162,0.0941,0.1246,1.0294,-0.1083,-0.1128,0.5252,-0.2642,-0.7564,0.1705,
0.915814,0.1220,0.1172,1.0269,-0.1083,-0.1128,0.5252,-0.2642,-0.7564,0.1705,
0.923407,0.1412,0.1175,1.0319,-0.1083,-0.1128,0.5252,-0.2642,-0.7564,0.1705,
0.924314,0.1605,0.1199,1.0343,-0.1083,-0.1128,0.5252,-0.2642,-0.7564,0.1705,
0.924741,0.1605,0.1199,1.0343,1.0065,-0.6410,0.4656,-0.2642,-0.7564,0.1705,
0.927781,0.1688,0.1260,1.0398,1.0065,-0.6410,0.4656,-0.2642,-0.7564,0.1705,
0.931776,0.1691,0.1356,1.0383,1.0065,-0.6410,0.4656,-0.2642,-0.7564,0.1705,
0.936014,0.1637,0.1412,1.0418,1.0065,-0.6410,0.4656,-0.2642,-0.7564,0.1705,
0.942469,0.1543,0.1461,1.0489,1.0065,-0.6410,0.4656,-0.2642,-0.7564,0.1705,
0.943636,0.1410,0.1476,1.0586,1.0065,-0.6410,0.4656,-0.2642,-0.7564,0.1705,
0.944014,0.1410,0.1476,1.0586,0.9986,-0.3237,0.6306,-0.2642,-0.7564,0.1705,
0.947853,0.1261,0.1482,1.0586,0.9986,-0.3237,0.6306,-0.2642,-0.7564,0.1705,
0.951877,0.1094,0.1468,1.0518,0.9986,-0.3237,0.6306,-0.2642,-0.7564,0.1705,
0.955967,0.0912,0.1430,1.0437,0.9986,-0.3237,0.6306,-0.2642,-0.7564,0.1705,
0.962193,0.0686,0.1376,1.0295,0.9986,-0.3237,0.6306,-0.2642,-0.7564,0.1705,
0.963707,0.0495,0.1350,1.0159,0.9986,-0.3237,0.6306,-0.2642,-0.7564,0.1705,
0.964258,0.0495,0.1350,1.0159,0.0954,-0.4074,0.4473,-0.2642,-0.7564,0.1705,
0.967635,0.0302,0.1325,1.0009,0.0954,-0.4074,0.4473,-0.2642,-0.7564,0.1705,
0.972033,0.0117,0.1337,0.9909,0.0954,-0.4074,0.4473,-0.2642,-0.7564,0.1705,
0.973091,0.0117,0.1337,0.9909,0.0954,-0.4074,0.4473,0.3094,-0.2561,-0.1704,
0.976927,-0.0043,0.1364,0.9840,0.0954,-0.4074,0.4473,0.3094,-0.2561,-0.1704,
0.982035,-0.0225,0.1430,0.9749,0.0954,-0.4074,0.4473,0.3094,-0.2561,-0.1704,
0.983690,-0.0342,0.1490,0.9680,0.0954,-0.4074,0.4473,0.3094,-0.2561,-0.1704,
0.984120,-0.0342,0.1490,0.9680,-0.8207,-0.3851,-0.0833,0.3094,-0.2561,-0.1704,
0.988254,-0.0395,0.1541,0.9664,-0.8207,-0.3851,-0.0833,0.3094,-0.2561,-0.1704,
0.991646,-0.0411,0.1594,0.9654,-0.8207,-0.3851,-0.0833,0.3094,-0.2561,-0.1704,
0.995438,-0.0386,0.1676,0.9635,-0.8207,-0.3851,-0.0833,0.3094,-0.2561,-0.1704,
1.001652,-0.0316,0.1723,0.9617,-0.8207,-0.3851,-0.0833,0.3094,-0.2561,-0.1704,
1.003171,-0.0187,0.1738,0.9576,-0.8207,-0.3851,-0.0833,0.3094,-0.2561,-0.1704,
1.004919,-0.0187,0.1738,0.9576,-0.9572,-0.1531,-0.1978,0.3094,-0.2561,-0.1704,
1.007542,-0.0030,0.1719,0.9499,-0.9572,-0.1531,-0.1978,0.3094,-0.2561,-0.1704,
1.011447,0.0125,0.1693,0.9392,-0.9572,-0.1531,-0.1978,0.3094,-0.2561,-0.1704,
1.015177,0.0327,0.1685,0.9272,-0.9572,-0.1531,-0.1978,0.3094,-0.2561,-0.1704,
1.023497,0.0501,0.1655,0.9162,-0.9572,-0.1531,-0.1978,0.3094,-0.2561,-0.1704,
1.024545,0.0501,0.1655,0.9162,-0.2510,-0.2666,-0.6228,0.3094,-0.2561,-0.1704,
1.025149,0.0602,0.1680,0.9105,-0.2510,-0.2666,-0.6228,0.3094,-0.2561,-0.1704,
1.026967,0.0686,0.1698,0.9044,-0.2510,-0.2666,-0.6228,0.3094,-0.2561,-0.1704,
1.031077,0.0795,0.1743,0.8987,-0.2510,-0.2666,-0.6228,0.3094,-0.2561,-0.1704,
1.035005,0.0859,0.1745,0.8972,-0.2510,-0.2666,-0.6228,0.3094,-0.2561,-0.1704,
1.037767,0.0859,0.1745,0.8972,-0.2510,-0.2666,-0.6228,0.2281,-0.2486,0.0856,
1.041528,0.0986,0.1736,0.8994,-0.2510,-0.2666,-0.6228,0.2281,-0.2486,0.0856,
1.043090,0.1091,0.1739,0.9063,-0.2510,-0.2666,-0.6228,0.2281,-0.2486,0.0856,
1.043509,0.1091,0.1739,0.9063,0.1461,-0.2543,-0.7724,0.2281,-0.2486,0.0856,
1.047072,0.1200,0.1743,0.9119,0.1461,-0.2543,-0.7724,0.2281,-0.2486,0.0856,
1.050889,0.1271,0.1744,0.9203,0.1461,-0.2543,-0.7724,0.2281,-0.2486,0.0856,
1.056258,0.1285,0.1753,0.9254,0.1461,-0.2543,-0.7724,0.2281,-0.2486,0.0856,
1.061583,0.1271,0.1757,0.9281,0.1461,-0.2543,-0.7724,0.2281,-0.2486,0.0856,
1.062729,0.1215,0.1808,0.9328,0.1461,-0.2543,-0.7724,0.2281,-0.2486,0.0856,
1.063283,0.1215,0.1808,0.9328,0.3799,-0.2754,-0.4851,0.2281,-0.2486,0.0856,
1.067056,0.1187,0.1820,0.9358,0.3799,-0.2754,-0.4851,0.2281,-0.2486,0.0856,
1.071849,0.1146,0.1807,0.9355,0.3799,-0.2754,-0.4851,0.2281,-0.2486,0.0856,
1.075144,0.1179,0.1832,0.9320,0.3799,-0.2754,-0.4851,0.2281,-0.2486,0.0856,
1.081598,0.1221,0.1875,0.9256,0.3799,-0.2754,-0.4851,0.2281,-0.2486,0.0856,
1.082978,0.1282,0.1906,0.9222,0.3799,-0.2754,-0.4851,0.2281,-0.2486,0.0856,
1.083370,0.1282,0.1906,0.9222,0.3042,-0.1864,-0.4963,0.2281,-0.2486,0.0856,
1.088462,0.1337,0.1949,0.9207,0.3042,-0.1864,-0.4963,0.2281,-0.2486,0.0856,
1.091078,0.1409,0.1941,0.9218,0.3042,-0.1864,-0.4963,0.2281,-0.2486,0.0856,
1.094699,0.1439,0.1933,0.9229,0.3042,-0.1864,-0.4963,0.2281,-0.2486,0.0856,
1.101049,0.1456,0.1937,0.9242,0.3042,-0.1864,-0.4963,0.2281,-0.2486,0.0856,
1.102440,0.1465,0.1947,0.9298,0.3042,-0.1864,-0.4963,0.2281,-0.2486,0.0856,
1.102734,0.1465,0.1947,0.9298,0.3042,-0.1864,-0.4963,0.1172,-0.0153,-0.1736,
1.104827,0.1465,0.1947,0.9298,0.5055,-0.1474,-0.5074,0.1172,-0.0153,-0.1736,
1.107024,0.1449,0.1984,0.9361,0.5055,-0.1474,-0.5074,0.1172,-0.0153,-0.1736,
1.110645,0.1455,0.2038,0.9448,0.5055,-0.1474,-0.5074,0.1172,-0.0153,-0.1736,
1.114579,0.1490,0.2063,0.9537,0.5055,-0.1474,-0.5074,0.1172,-0.0153,-0.1736,
1.121724,0.1495,0.2102,0.9619,0.5055,-0.1474,-0.5074,0.1172,-0.0153,-0.1736,
1.122800,0.1442,0.2148,0.9700,0.5055,-0.1474,-0.5074,0.1172,-0.0153,-0.1736,
1.123546,0.1442,0.2148,0.9700,0.5543,-0.0156,-0.1293,0.1172,-0.0153,-0.1736,
1.126622,0.1435,0.2194,0.9712,0.5543,-0.0156,-0.1293,0.1172,-0.0153,-0.1736,
1.130352,0.1409,0.2252,0.9737,0.5543,-0.0156,-0.1293,0.1172,-0.0153,-0.1736,
1.134346,0.1427,0.2306,0.9764,0.5543,-0.0156,-0.1293,0.1172,-0.0153,-0.1736,
1.140827,0.1472,0.2321,0.9778,0.5543,-0.0156,-0.1293,0.1172,-0.0153,-0.1736,
1.142333,0.1515,0.2342,0.9799,0.5543,-0.0156,-0.1293,0.1172,-0.0153,-0.1736,
1.142729,0.1515,0.2342,0.9799,0.5361,0.1809,0.0306,0.1172,-0.0153,-0.1736,
1.146221,0.1523,0.2393,0.9797,0.5361,0.1809,0.0306,0.1172,-0.0153,-0.1736,
1.150218,0.1519,0.2423,0.9815,0.5361,0.1809,0.0306,0.1172,-0.0153,-0.1736,
1.155041,0.1523,0.2455,0.9855,0.5361,0.1809,0.0306,0.1172,-0.0153,-0.1736,
1.160766,0.1500,0.2527,0.9887,0.5361,0.1809,0.0306,0.1172,-0.0153,-0.1736,
1.162081,0.1501,0.2586,0.9883,0.5361,0.1809,0.0306,0.1172,-0.0153,-0.1736,
1.162460,0.1501,0.2586,0.9883,0.5957,0.3552,0.1405,0.1172,-0.0153,-0.1736,
1.166080,0.1529,0.2648,0.9894,0.5957,0.3552,0.1405,0.1172,-0.0153,-0.1736,
1.167953,0.1529,0.2648,0.9894,0.5957,0.3552,0.1405,0.1028,0.2414,-0.1456,
1.170901,0.1561,0.2678,0.9920,0.5957,0.3552,0.1405,0.1028,0.2414,-0.1456,
1.174375,0.1640,0.2711,0.9925,0.5957,0.3552,0.1405,0.1028,0.2414,-0.1456,
1.180404,0.1708,0.2733,0.9921,0.5957,0.3552,0.1405,0.1028,0.2414,-0.1456,
1.182186,0.1751,0.2748,0.9905,0.5957,0.3552,0.1405,0.1028,0.2414,-0.1456,
1.182569,0.1751,0.2748,0.9905,0.8324,0.5402,0.1808,0.1028,0.2414,-0.1456,
1.185829,0.1771,0.2781,0.9920,0.8324,0.5402,0.1808,0.1028,0.2414,-0.1456,
1.190395,0.1763,0.2818,0.9884,0.8324,0.5402,0.1808,0.1028,0.2414,-0.1456,
1.194167,0.1734,0.2875,0.9835,0.8324,0.5402,0.1808,0.1028,0.2414,-0.1456,
1.200234,0.1752,0.2916,0.9781,0.8324,0.5402,0.1808,0.1028,0.2414,-0.1456,
1.201681,0.1818,0.2977,0.9742,0.8324,0.5402,0.1808,0.1028,0.2414,-0.1456,
1.202048,0.1818,0.2977,0.9742,0.9313,0.7030,0.0348,0.1028,0.2414,-0.1456,
1.207309,0.1900,0.2996,0.9707,0.9313,0.7030,0.0348,0.1028,0.2414,-0.1456,
1.209807,0.2003,0.3009,0.9679,0.9313,0.7030,0.0348,0.1028,0.2414,-0.1456,
1.213705,0.2086,0.3019,0.9633,0.9313,0.7030,0.0348,0.1028,0.2414,-0.1456,
1.220739,0.2090,0.2976,0.9590,0.9313,0.7030,0.0348,0.1028,0.2414,-0.1456,
1.221961,0.2062,0.2971,0.9525,0.9313,0.7030,0.0348,0.1028,0.2414,-0.1456,
1.222562,0.2062,0.2971,0.9525,1.3007,0.7247,-0.1383,0.1028,0.2414,-0.1456,
1.226010,0.1993,0.2962,0.9488,1.3007,0.7247,-0.1383,0.1028,0.2414,-0.1456,
1.229933,0.1912,0.3003,0.9434,1.3007,0.7247,-0.1383,0.1028,0.2414,-0.1456,
1.234111,0.1853,0.3057,0.9392,1.3007,0.7247,-0.1383,0.1028,0.2414,-0.1456,
1.234984,0.1853,0.3057,0.9392,1.3007,0.7247,-0.1383,0.0668,0.1681,-0.1710,
1.242191,0.1806,0.3084,0.9360,1.3007,0.7247,-0.1383,0.0668,0.1681,-0.1710,
1.243310,0.1800,0.3063,0.9320,1.3007,0.7247,-0.1383,0.0668,0.1681,-0.1710,
1.243684,0.1800,0.3063,0.9320,1.0479,0.8064,-0.3700,0.0668,0.1681,-0.1710,
1.245670,0.1868,0.3038,0.9333,1.0479,0.8064,-0.3700,0.0668,0.1681,-0.1710,
1.249571,0.1906,0.3020,0.9353,1.0479,0.8064,-0.3700,0.0668,0.1681,-0.1710,
1.254583,0.1949,0.2947,0.9419,1.0479,0.8064,-0.3700,0.0668,0.1681,-0.1710,
1.259997,0.1922,0.2899,0.9471,1.0479,0.8064,-0.3700,0.0668,0.1681,-0.1710,
1.261282,0.1848,0.2863,0.9531,1.0479,0.8064,-0.3700,0.0668,0.1681,-0.1710,
1.261693,0.1848,0.2863,0.9531,1.1923,0.6135,-0.2505,0.0668,0.1681,-0.1710,
1.265484,0.1765,0.2856,0.9572,1.1923,0.6135,-0.2505,0.0668,0.1681,-0.1710,
1.270753,0.1690,0.2874,0.9593,1.1923,0.6135,-0.2505,0.0668,0.1681,-0.1710,
1.273585,0.1652,0.2906,0.9647,1.1923,0.6135,-0.2505,0.0668,0.1681,-0.1710,
1.279782,0.1668,0.2924,0.9720,1.1923,0.6135,-0.2505,0.0668,0.1681,-0.1710,
1.281109,0.1713,0.2993,0.9864,1.1923,0.6135,-0.2505,0.0668,0.1681,-0.1710,
1.281484,0.1713,0.2993,0.9864,0.9495,0.6270,-0.0139,0.0668,0.1681,-0.1710,
1.285157,0.1694,0.3016,0.9971,0.9495,0.6270,-0.0139,0.0668,0.1681,-0.1710,
1.289553,0.1670,0.3024,1.0063,0.9495,0.6270,-0.0139,0.0668,0.1681,-0.1710,
1.293298,0.1668,0.2991,1.0114,0.9495,0.6270,-0.0139,0.0668,0.1681,-0.1710,
1.299799,0.1674,0.2961,1.0128,0.9495,0.6270,-0.0139,0.0668,0.1681,-0.1710,
1.300877,0.1674,0.2961,1.0128,0.9495,0.6270,-0.0139,0.0233,-0.1719,-0.3613,
1.301235,0.1716,0.2934,1.0129,0.9495,0.6270,-0.0139,0.0233,-0.1719,-0.3613,
1.301803,0.1716,0.2934,1.0129,0.9147,0.6507,0.3920,0.0233,-0.1719,-0.3613,
1.305508,0.1726,0.2906,1.0107,0.9147,0.6507,0.3920,0.0233,-0.1719,-0.3613,
1.309239,0.1766,0.2897,1.0096,0.9147,0.6507,0.3920,0.0233,-0.1719,-0.3613,
1.313072,0.1797,0.2876,1.0105,0.9147,0.6507,0.3920,0.0233,-0.1719,-0.3613,
1.320662,0.1801,0.2845,1.0112,0.9147,0.6507,0.3920,0.0233,-0.1719,-0.3613,
1.321544,0.1779,0.2785,1.0097,0.9147,0.6507,0.3920,0.0233,-0.1719,-0.3613,
1.322042,0.1779,0.2785,1.0097,1.0109,0.5384,0.3781,0.0233,-0.1719,-0.3613,
1.325151,0.1732,0.2767,1.0072,1.0109,0.5384,0.3781,0.0233,-0.1719,-0.3613,
1.328854,0.1684,0.2773,1.0021,1.0109,0.5384,0.3781,0.0233,-0.1719,-0.3613,
1.333184,0.1648,0.2788,0.9940,1.0109,0.5384,0.3781,0.0233,-0.1719,-0.3613,
1.339603,0.1642,0.2886,0.9883,1.0109,0.5384,0.3781,0.0233,-0.1719,-0.3613,
1.341158,0.1663,0.3015,0.9856,1.0109,0.5384,0.3781,0.0233,-0.1719,-0.3613,
1.341655,0.1663,0.3015,0.9856,0.8546,0.5573,0.1679,0.0233,-0.1719,-0.3613,
1.344841,0.1762,0.3082,0.9842,0.8546,0.5573,0.1679,0.0233,-0.1719,-0.3613,
1.348902,0.1868,0.3182,0.9857,0.8546,0.5573,0.1679,0.0233,-0.1719,-0.3613,
1.354288,0.2000,0.3206,0.9912,0.8546,0.5573,0.1679,0.0233,-0.1719,-0.3613,
1.359330,0.2095,0.3225,0.9956,0.8546,0.5573,0.1679,0.0233,-0.1719,-0.3613,
1.360589,0.2128,0.3235,1.0011,0.8546,0.5573,0.1679,0.0233,-0.1719,-0.3613,
1.361090,0.2128,0.3235,1.0011,1.2933,0.8556,0.2420,0.0233,-0.1719,-0.3613,
1.364454,0.2136,0.3257,1.0028,1.2933,0.8556,0.2420,0.0233,-0.1719,-0.3613,
1.364853,0.2136,0.3257,1.0028,1.2933,0.8556,0.2420,0.0715,0.0685,-0.3409,
1.371178,0.2117,0.3316,1.0018,1.2933,0.8556,0.2420,0.0715,0.0685,-0.3409,
1.373036,0.2083,0.3387,0.9964,1.2933,0.8556,0.2420,0.0715,0.0685,-0.3409,
1.379257,0.2098,0.3474,0.9890,1.2933,0.8556,0.2420,0.0715,0.0685,-0.3409,
1.380371,0.2135,0.3510,0.9846,1.2933,0.8556,0.2420,0.0715,0.0685,-0.3409,
1.380732,0.2135,0.3510,0.9846,1.3043,1.0767,0.1882,0.0715,0.0685,-0.3409,
1.384801,0.2204,0.3537,0.9789,1.3043,1.0767,0.1882,0.0715,0.0685,-0.3409,
1.390135,0.2313,0.3552,0.9749,1.3043,1.0767,0.1882,0.0715,0.0685,-0.3409,
1.392414,0.2404,0.3512,0.9730,1.3043,1.0767,0.1882,0.0715,0.0685,-0.3409,
1.399066,0.2541,0.3485,0.9692,1.3043,1.0767,0.1882,0.0715,0.0685,-0.3409,
1.400028,0.2603,0.3464,0.9636,1.3043,1.0767,0.1882,0.0715,0.0685,-0.3409,
1.400810,0.2603,0.3464,0.9636,1.7559,1.0574,-0.0113,0.0715,0.0685,-0.3409,
1.404694,0.2631,0.3452,0.9545,1.7559,1.0574,-0.0113,0.0715,0.0685,-0.3409,
1.408486,0.2647,0.3447,0.9423,1.7559,1.0574,-0.0113,0.0715,0.0685,-0.3409,
1.412340,0.2611,0.3431,0.9267,1.7559,1.0574,-0.0113,0.0715,0.0685,-0.3409,
1.418555,0.2576,0.3412,0.9128,1.7559,1.0574,-0.0113,0.0715,0.0685,-0.3409,
1.420486,0.2549,0.3401,0.9003,1.7559,1.0574,-0.0113,0.0715,0.0685,-0.3409,
1.421636,0.2549,0.3401,0.9003,1.7972,0.9622,-0.5450,0.0715,0.0685,-0.3409,
1.424691,0.2573,0.3325,0.8935,1.7972,0.9622,-0.5450,0.0715,0.0685,-0.3409,
1.428214,0.2604,0.3274,0.8909,1.7972,0.9622,-0.5450,0.0715,0.0685,-0.3409,
1.430303,0.2604,0.3274,0.8909,1.7972,0.9622,-0.5450,-0.0509,0.1631,-0.3898,
1.432036,0.2682,0.3223,0.8893,1.7972,0.9622,-0.5450,-0.0509,0.1631,-0.3898,
1.438800,0.2717,0.3142,0.8908,1.7972,0.9622,-0.5450,-0.0509,0.1631,-0.3898,
1.440127,0.2750,0.3022,0.8923,1.7972,0.9622,-0.5450,-0.0509,0.1631,-0.3898,
1.440695,0.2750,0.3022,0.8923,1.9658,0.6773,-0.7671,-0.0509,0.1631,-0.3898,
1.444065,0.2760,0.2962,0.8896,1.9658,0.6773,-0.7671,-0.0509,0.1631,-0.3898,
1.448769,0.2773,0.2891,0.8903,1.9658,0.6773,-0.7671,-0.0509,0.1631,-0.3898,
1.451834,0.2761,0.2819,0.8905,1.9658,0.6773,-0.7671,-0.0509,0.1631,-0.3898,
1.458579,0.2738,0.2725,0.8915,1.9658,0.6773,-0.7671,-0.0509,0.1631,-0.3898,
1.459789,0.2717,0.2611,0.8927,1.9658,0.6773,-0.7671,-0.0509,0.1631,-0.3898,
1.460120,0.2717,0.2611,0.8927,2.0133,0.2643,-0.7590,-0.0509,0.1631,-0.3898,
1.463695,0.2689,0.2491,0.8946,2.0133,0.2643,-0.7590,-0.0509,0.1631,-0.3898,
1.468064,0.2661,0.2355,0.8931,2.0133,0.2643,-0.7590,-0.0509,0.1631,-0.3898,
1.472323,0.2621,0.2268,0.8916,2.0133,0.2643,-0.7590,-0.0509,0.1631,-0.3898,
1.478227,0.2513,0.2123,0.8871,2.0133,0.2643,-0.7590,-0.0509,0.1631,-0.3898,
1.479622,0.2362,0.2046,0.8825,2.0133,0.2643,-0.7590,-0.0509,0.1631,-0.3898,
1.479995,0.2362,0.2046,0.8825,1.7948,-0.3184,-0.8099,-0.0509,0.1631,-0.3898,
1.483771,0.2139,0.1955,0.8764,1.7948,-0.3184,-0.8099,-0.0509,0.1631,-0.3898,
1.488029,0.1881,0.1862,0.8675,1.7948,-0.3184,-0.8099,-0.0509,0.1631,-0.3898,
1.492180,0.1696,0.1783,0.8583,1.7948,-0.3184,-0.8099,-0.0509,0.1631,-0.3898,
1.498386,0.1574,0.1625,0.8573,1.7948,-0.3184,-0.8099,-0.0509,0.1631,-0.3898,
1.499052,0.1574,0.1625,0.8573,1.7948,-0.3184,-0.8099,-0.0644,-0.6285,-0.7004,
1.499712,0.1555,0.1439,0.8662,1.7948,-0.3184,-0.8099,-0.0644,-0.6285,-0.7004,
1.500283,0.1555,0.1439,0.8662,0.8405,-0.7970,-1.0918,-0.0644,-0.6285,-0.7004,
1.504686,0.1546,0.1259,0.8775,0.8405,-0.7970,-1.0918,-0.0644,-0.6285,-0.7004,
1.507919,0.1519,0.1103,0.8916,0.8405,-0.7970,-1.0918,-0.0644,-0.6285,-0.7004,
1.511610,0.1406,0.0936,0.9042,0.8405,-0.7970,-1.0918,-0.0644,-0.6285,-0.7004,
1.517929,0.1183,0.0850,0.9137,0.8405,-0.7970,-1.0918,-0.0644,-0.6285,-0.7004,
1.520366,0.0840,0.0815,0.9252,0.8405,-0.7970,-1.0918,-0.0644,-0.6285,-0.7004,
1.521679,0.0840,0.0815,0.9252,0.3517,-1.5754,-0.5332,-0.0644,-0.6285,-0.7004,
1.523901,0.0500,0.0823,0.9281,0.3517,-1.5754,-0.5332,-0.0644,-0.6285,-0.7004,
1.527457,0.0178,0.0813,0.9232,0.3517,-1.5754,-0.5332,-0.0644,-0.6285,-0.7004,
1.531374,0.0040,0.0787,0.9131,0.3517,-1.5754,-0.5332,-0.0644,-0.6285,-0.7004,
1.538800,0.0003,0.0724,0.9044,0.3517,-1.5754,-0.5332,-0.0644,-0.6285,-0.7004,
1.539740,0.0079,0.0645,0.8901,0.3517,-1.5754,-0.5332,-0.0644,-0.6285,-0.7004,
1.540238,0.0079,0.0645,0.8901,-0.9533,-1.6936,-0.6051,-0.0644,-0.6285,-0.7004,
1.543224,0.0176,0.0541,0.8784,-0.9533,-1.6936,-0.6051,-0.0644,-0.6285,-0.7004,
1.547252,0.0277,0.0492,0.8614,-0.9533,-1.6936,-0.6051,-0.0644,-0.6285,-0.7004,
1.551155,0.0345,0.0487,0.8471,-0.9533,-1.6936,-0.6051,-0.0644,-0.6285,-0.7004,
1.558242,0.0375,0.0486,0.8323,-0.9533,-1.6936,-0.6051,-0.0644,-0.6285,-0.7004,
1.559124,0.0378,0.0560,0.8210,-0.9533,-1.6936,-0.6051,-0.0644,-0.6285,-0.7004,
1.559910,0.0378,0.0560,0.8210,-0.7398,-1.9665,-1.2879,-0.0644,-0.6285,-0.7004,
1.561033,0.0378,0.0560,0.8210,-0.7398,-1.9665,-1.2879,0.0835,-0.7415,-0.4321,
1.563079,0.0424,0.0575,0.8168,-0.7398,-1.9665,-1.2879,0.0835,-0.7415,-0.4321,
1.567039,0.0482,0.0564,0.8157,-0.7398,-1.9665,-1.2879,0.0835,-0.7415,-0.4321,
1.571339,0.0530,0.0595,0.8153,-0.7398,-1.9665,-1.2879,0.0835,-0.7415,-0.4321,
1.577689,0.0594,0.0572,0.8155,-0.7398,-1.9665,-1.2879,0.0835,-0.7415,-0.4321,
1.579145,0.0639,0.0606,0.8128,-0.7398,-1.9665,-1.2879,0.0835,-0.7415,-0.4321,
1.579912,0.0639,0.0606,0.8128,-0.6640,-1.9064,-1.4312,0.0835,-0.7415,-0.4321,
1.583210,0.0650,0.0627,0.8062,-0.6640,-1.9064,-1.4312,0.0835,-0.7415,-0.4321,
1.587322,0.0627,0.0680,0.7954,-0.6640,-1.9064,-1.4312,0.0835,-0.7415,-0.4321,
1.591230,0.0583,0.0731,0.7825,-0.6640,-1.9064,-1.4312,0.0835,-0.7415,-0.4321,
1.597448,0.0545,0.0804,0.7755,-0.6640,-1.9064,-1.4312,0.0835,-0.7415,-0.4321,
1.598793,0.0517,0.0831,0.7696,-0.6640,-1.9064,-1.4312,0.0835,-0.7415,-0.4321,
1.599149,0.0517,0.0831,0.7696,-0.8447,-1.6889,-1.8006,0.0835,-0.7415,-0.4321,
1.603564,0.0566,0.0867,0.7684,-0.8447,-1.6889,-1.8006,0.0835,-0.7415,-0.4321,
1.607094,0.0641,0.0916,0.7701,-0.8447,-1.6889,-1.8006,0.0835,-0.7415,-0.4321,
1.610996,0.0704,0.0931,0.7795,-0.8447,-1.6889,-1.8006,0.0835,-0.7415,-0.4321,
1.617145,0.0725,0.0972,0.7872,-0.8447,-1.6889,-1.8006,0.0835,-0.7415,-0.4321,
1.619530,0.0759,0.1048,0.7959,-0.8447,-1.6889,-1.8006,0.0835,-0.7415,-0.4321,
1.620451,0.0759,0.1048,0.7959,-0.8021,-1.5425,-1.6581,0.0835,-0.7415,-0.4321,
1.623253,0.0823,0.1105,0.8022,-0.8021,-1.5425,-1.6581,0.0835,-0.7415,-0.4321,
1.627047,0.0930,0.1148,0.8037,-0.8021,-1.5425,-1.6581,0.0835,-0.7415,-0.4321,
1.627710,0.0930,0.1148,0.8037,-0.8021,-1.5425,-1.6581,-0.0579,-0.9811,-0.3113,
1.630978,0.1080,0.1187,0.8063,-0.8021,-1.5425,-1.6581,-0.0579,-0.9811,-0.3113,
1.638199,0.1206,0.1230,0.8078,-0.8021,-1.5425,-1.6581,-0.0579,-0.9811,-0.3113,
1.639238,0.1336,0.1250,0.8077,-0.8021,-1.5425,-1.6581,-0.0579,-0.9811,-0.3113,
1.639675,0.1336,0.1250,0.8077,-0.4933,-1.2838,-1.4354,-0.0579,-0.9811,-0.3113,
1.642824,0.1450,0.1302,0.8072,-0.4933,-1.2838,-1.4354,-0.0579,-0.9811,-0.3113,
1.646614,0.1574,0.1348,0.8030,-0.4933,-1.2838,-1.4354,-0.0579,-0.9811,-0.3113,
1.650636,0.1648,0.1401,0.7952,-0.4933,-1.2838,-1.4354,-0.0579,-0.9811,-0.3113,
1.656882,0.1767,0.1482,0.7837,-0.4933,-1.2838,-1.4354,-0.0579,-0.9811,-0.3113,
1.658414,0.1820,0.1554,0.7669,-0.4933,-1.2838,-1.4354,-0.0579,-0.9811,-0.3113,
1.658918,0.1820,0.1554,0.7669,-0.1261,-1.0373,-1.6388,-0.0579,-0.9811,-0.3113,
1.663129,0.1884,0.1624,0.7465,-0.1261,-1.0373,-1.6388,-0.0579,-0.9811,-0.3113,
1.666394,0.1887,0.1681,0.7251,-0.1261,-1.0373,-1.6388,-0.0579,-0.9811,-0.3113,
1.670556,0.1940,0.1721,0.7097,-0.1261,-1.0373,-1.6388,-0.0579,-0.9811,-0.3113,
1.676653,0.2046,0.1713,0.7070,-0.1261,-1.0373,-1.6388,-0.0579,-0.9811,-0.3113,
1.677891,0.2239,0.1735,0.7139,-0.1261,-1.0373,-1.6388,-0.0579,-0.9811,-0.3113,
1.678386,0.2239,0.1735,0.7139,-0.0530,-0.8188,-2.3378,-0.0579,-0.9811,-0.3113,
1.682676,0.2355,0.1700,0.7281,-0.0530,-0.8188,-2.3378,-0.0579,-0.9811,-0.3113,
1.686252,0.2488,0.1701,0.7509,-0.0530,-0.8188,-2.3378,-0.0579,-0.9811,-0.3113,
1.690258,0.2586,0.1725,0.7845,-0.0530,-0.8188,-2.3378,-0.0579,-0.9811,-0.3113,
1.692018,0.2586,0.1725,0.7845,-0.0530,-0.8188,-2.3378,-0.4177,-1.2946,-0.5613,
1.696382,0.2650,0.1744,0.8138,-0.0530,-0.8188,-2.3378,-0.4177,-1.2946,-0.5613,
1.698024,0.2659,0.1771,0.8505,-0.0530,-0.8188,-2.3378,-0.4177,-1.2946,-0.5613,
1.698285,0.2659,0.1771,0.8505,0.3248,-0.7710,-1.2540,-0.4177,-1.2946,-0.5613,
1.702507,0.2642,0.1760,0.8766,0.3248,-0.7710,-1.2540,-0.4177,-1.2946,-0.5613,
1.706351,0.2602,0.1781,0.8979,0.3248,-0.7710,-1.2540,-0.4177,-1.2946,-0.5613,
1.710075,0.2539,0.1781,0.9132,0.3248,-0.7710,-1.2540,-0.4177,-1.2946,-0.5613,
1.719633,0.2544,0.1784,0.9267,0.3248,-0.7710,-1.2540,-0.4177,-1.2946,-0.5613,
1.720665,0.2544,0.1784,0.9267,-0.0102,-0.6724,-0.1029,-0.4177,-1.2946,-0.5613,
1.721905,0.2584,0.1703,0.9367,-0.0102,-0.6724,-0.1029,-0.4177,-1.2946,-0.5613,
1.722584,0.2546,0.1650,0.9380,-0.0102,-0.6724,-0.1029,-0.4177,-1.2946,-0.5613,
1.726045,0.2448,0.1572,0.9372,-0.0102,-0.6724,-0.1029,-0.4177,-1.2946,-0.5613,
1.729937,0.2299,0.1513,0.9310,-0.0102,-0.6724,-0.1029,-0.4177,-1.2946,-0.5613,
1.736789,0.2156,0.1521,0.9279,-0.0102,-0.6724,-0.1029,-0.4177,-1.2946,-0.5613,
1.737783,0.1933,0.1512,0.9296,-0.0102,-0.6724,-0.1029,-0.4177,-1.2946,-0.5613,
1.738468,0.1933,0.1512,0.9296,-0.5885,-0.8754,-0.0512,-0.4177,-1.2946,-0.5613,
1.742010,0.1818,0.1544,0.9332,-0.5885,-0.8754,-0.0512,-0.4177,-1.2946,-0.5613,
1.745760,0.1713,0.1534,0.9468,-0.5885,-0.8754,-0.0512,-0.4177,-1.2946,-0.5613,
1.749684,0.1650,0.1570,0.9644,-0.5885,-0.8754,-0.0512,-0.4177,-1.2946,-0.5613,
1.756357,0.1574,0.1586,0.9912,-0.5885,-0.8754,-0.0512,-0.4177,-1.2946,-0.5613,
1.757919,0.1519,0.1579,1.0112,-0.5885,-0.8754,-0.0512,-0.4177,-1.2946,-0.5613,
1.758383,0.1519,0.1579,1.0112,-0.5885,-0.8754,-0.0512,-0.6263,-1.0048,-0.6056,
1.758924,0.1519,0.1579,1.0112,-1.3051,-0.7512,0.6099,-0.6263,-1.0048,-0.6056,
1.761692,0.1536,0.1581,1.0387,-1.3051,-0.7512,0.6099,-0.6263,-1.0048,-0.6056,
1.765765,0.1549,0.1559,1.0560,-1.3051,-0.7512,0.6099,-0.6263,-1.0048,-0.6056,
1.770973,0.1609,0.1525,1.0675,-1.3051,-0.7512,0.6099,-0.6263,-1.0048,-0.6056,
1.776258,0.1661,0.1444,1.0767,-1.3051,-0.7512,0.6099,-0.6263,-1.0048,-0.6056,
1.777633,0.1717,0.1363,1.0839,-1.3051,-0.7512,0.6099,-0.6263,-1.0048,-0.6056,
1.778093,0.1717,0.1363,1.0839,-1.3894,-0.8124,1.4746,-0.6263,-1.0048,-0.6056,
1.781681,0.1690,0.1284,1.0873,-1.3894,-0.8124,1.4746,-0.6263,-1.0048,-0.6056,
1.786499,0.1587,0.1237,1.0880,-1.3894,-0.8124,1.4746,-0.6263,-1.0048,-0.6056,
1.789912,0.1500,0.1208,1.0858,-1.3894,-0.8124,1.4746,-0.6263,-1.0048,-0.6056,
1.795918,0.1478,0.1201,1.0853,-1.3894,-0.8124,1.4746,-0.6263,-1.0048,-0.6056,
1.797322,0.1526,0.1221,1.0856,-1.3894,-0.8124,1.4746,-0.6263,-1.0048,-0.6056,
1.797744,0.1526,0.1221,1.0856,-1.7386,-0.9720,1.5939,-0.6263,-1.0048,-0.6056,
1.802871,0.1635,0.1194,1.0856,-1.7386,-0.9720,1.5939,-0.6263,-1.0048,-0.6056,
1.805773,0.1794,0.1142,1.0833,-1.7386,-0.9720,1.5939,-0.6263,-1.0048,-0.6056,
1.809403,0.1929,0.1081,1.0760,-1.7386,-0.9720,1.5939,-0.6263,-1.0048,-0.6056,
1.815539,0.2020,0.1010,1.0611,-1.7386,-0.9720,1.5939,-0.6263,-1.0048,-0.6056,
1.817090,0.2111,0.0983,1.0500,-1.7386,-0.9720,1.5939,-0.6263,-1.0048,-0.6056,
1.817472,0.2111,0.0983,1.0500,-1.4341,-1.1075,1.4290,-0.6263,-1.0048,-0.6056,
1.821944,0.2239,0.0975,1.0395,-1.4341,-1.1075,1.4290,-0.6263,-1.0048,-0.6056,
1.823323,0.2239,0.0975,1.0395,-1.4341,-1.1075,1.4290,-0.2467,-1.7396,-0.2080,
1.825202,0.2465,0.0997,1.0330,-1.4341,-1.1075,1.4290,-0.2467,-1.7396,-0.2080,
1.829243,0.2710,0.1031,1.0292,-1.4341,-1.1075,1.4290,-0.2467,-1.7396,-0.2080,
1.835324,0.2934,0.1036,1.0224,-1.4341,-1.1075,1.4290,-0.2467,-1.7396,-0.2080,
1.837006,0.3115,0.1024,1.0144,-1.4341,-1.1075,1.4290,-0.2467,-1.7396,-0.2080,
1.837344,0.3115,0.1024,1.0144,-0.8378,-1.0416,1.1661,-0.2467,-1.7396,-0.2080,
1.841445,0.3214,0.1018,1.0029,-0.8378,-1.0416,1.1661,-0.2467,-1.7396,-0.2080,
1.845332,0.3253,0.0991,0.9879,-0.8378,-1.0416,1.1661,-0.2467,-1.7396,-0.2080,
1.849230,0.3177,0.0978,0.9745,-0.8378,-1.0416,1.1661,-0.2467,-1.7396,-0.2080,
1.855242,0.3065,0.0965,0.9576,-0.8378,-1.0416,1.1661,-0.2467,-1.7396,-0.2080,
1.857439,0.2916,0.0971,0.9503,-0.8378,-1.0416,1.1661,-0.2467,-1.7396,-0.2080,
1.858388,0.2916,0.0971,0.9503,-0.9914,-1.0772,0.6416,-0.2467,-1.7396,-0.2080,
1.861228,0.2802,0.0981,0.9443,-0.9914,-1.0772,0.6416,-0.2467,-1.7396,-0.2080,
1.865197,0.2662,0.0977,0.9467,-0.9914,-1.0772,0.6416,-0.2467,-1.7396,-0.2080,
1.868729,0.2476,0.0983,0.9483,-0.9914,-1.0772,0.6416,-0.2467,-1.7396,-0.2080,
1.875830,0.2316,0.1001,0.9541,-0.9914,-1.0772,0.6416,-0.2467,-1.7396,-0.2080,
1.877042,0.2121,0.0998,0.9645,-0.9914,-1.0772,0.6416,-0.2467,-1.7396,-0.2080,
1.877575,0.2121,0.0998,0.9645,-1.8783,-0.9747,0.6684,-0.2467,-1.7396,-0.2080,
1.880855,0.2008,0.1005,0.9755,-1.8783,-0.9747,0.6684,-0.2467,-1.7396,-0.2080,
1.885065,0.1992,0.1019,0.9880,-1.8783,-0.9747,0.6684,-0.2467,-1.7396,-0.2080,
1.888968,0.2094,0.1082,1.0097,-1.8783,-0.9747,0.6684,-0.2467,-1.7396,-0.2080,
1.889362,0.2094,0.1082,1.0097,-1.8783,-0.9747,0.6684,-0.7643,-0.1554,0.0468,
1.895345,0.2290,0.1147,1.0343,-1.8783,-0.9747,0.6684,-0.7643,-0.1554,0.0468,
1.897022,0.2580,0.1254,1.0626,-1.8783,-0.9747,0.6684,-0.7643,-0.1554,0.0468,
1.897411,0.2580,0.1254,1.0626,-1.9515,-0.7152,1.4541,-0.7643,-0.1554,0.0468,
1.900673,0.2865,0.1298,1.0868,-1.9515,-0.7152,1.4541,-0.7643,-0.1554,0.0468,
1.904541,0.3223,0.1311,1.1104,-1.9515,-0.7152,1.4541,-0.7643,-0.1554,0.0468,
1.909502,0.3579,0.1299,1.1221,-1.9515,-0.7152,1.4541,-0.7643,-0.1554,0.0468,
1.915382,0.3960,0.1297,1.1257,-1.9515,-0.7152,1.4541,-0.7643,-0.1554,0.0468,
1.916276,0.4497,0.1369,1.1256,-1.9515,-0.7152,1.4541,-0.7643,-0.1554,0.0468,
1.917054,0.4497,0.1369,1.1256,-0.3367,-0.4280,2.3272,-0.7643,-0.1554,0.0468,
1.920403,0.4826,0.1395,1.1234,-0.3367,-0.4280,2.3272,-0.7643,-0.1554,0.0468,
1.924820,0.5157,0.1441,1.1170,-0.3367,-0.4280,2.3272,-0.7643,-0.1554,0.0468,
1.928818,0.5346,0.1457,1.1115,-0.3367,-0.4280,2.3272,-0.7643,-0.1554,0.0468,
1.934787,0.5525,0.1470,1.0966,-0.3367,-0.4280,2.3272,-0.7643,-0.1554,0.0468,
1.936021,0.5680,0.1500,1.0703,-0.3367,-0.4280,2.3272,-0.7643,-0.1554,0.0468,
1.936598,0.5680,0.1500,1.0703,1.1418,-0.1225,2.0438,-0.7643,-0.1554,0.0468,
1.940533,0.5819,0.1526,1.0434,1.1418,-0.1225,2.0438,-0.7643,-0.1554,0.0468,
1.944567,0.6037,0.1593,1.0124,1.1418,-0.1225,2.0438,-0.7643,-0.1554,0.0468,
1.948296,0.6270,0.1669,0.9766,1.1418,-0.1225,2.0438,-0.7643,-0.1554,0.0468,
1.954489,0.6382,0.1706,0.9495,1.1418,-0.1225,2.0438,-0.7643,-0.1554,0.0468,
1.957031,0.6382,0.1706,0.9495,1.1418,-0.1225,2.0438,-0.1706,-1.2845,-0.3400,
1.958019,0.6453,0.1774,0.9265,1.1418,-0.1225,2.0438,-0.1706,-1.2845,-0.3400,
1.958581,0.6453,0.1774,0.9265,1.8893,0.1709,0.6379,-0.1706,-1.2845,-0.3400,
1.960485,0.6416,0.1844,0.9033,1.8893,0.1709,0.6379,-0.1706,-1.2845,-0.3400,
1.964477,0.6359,0.1929,0.8767,1.8893,0.1709,0.6379,-0.1706,-1.2845,-0.3400,
1.968048,0.6354,0.1994,0.8320,1.8893,0.1709,0.6379,-0.1706,-1.2845,-0.3400,
1.974758,0.6362,0.2139,0.7893,1.8893,0.1709,0.6379,-0.1706,-1.2845,-0.3400,
1.976299,0.6338,0.2365,0.7426,1.8893,0.1709,0.6379,-0.1706,-1.2845,-0.3400,
1.976973,0.6338,0.2365,0.7426,1.6761,0.6033,-0.8327,-0.1706,-1.2845,-0.3400,
1.980183,0.6307,0.2560,0.7118,1.6761,0.6033,-0.8327,-0.1706,-1.2845,-0.3400,
1.984008,0.6283,0.2790,0.6840,1.6761,0.6033,-0.8327,-0.1706,-1.2845,-0.3400,
1.987846,0.6319,0.2957,0.6686,1.6761,0.6033,-0.8327,-0.1706,-1.2845,-0.3400,
1.994603,0.6329,0.3124,0.6580,1.6761,0.6033,-0.8327,-0.1706,-1.2845,-0.3400,
1.995914,0.6415,0.3296,0.6548,1.6761,0.6033,-0.8327,-0.1706,-1.2845,-0.3400,
1.996308,0.6415,0.3296,0.6548,1.2999,1.5533,-1.9259,-0.1706,-1.2845,-0.3400,
1.999971,0.6598,0.3472,0.6593,1.2999,1.5533,-1.9259,-0.1706,-1.2845,-0.3400,
2.003679,0.7018,0.3637,0.6684,1.2999,1.5533,-1.9259,-0.1706,-1.2845,-0.3400,
2.008107,0.7541,0.3784,0.6725,1.2999,1.5533,-1.9259,-0.1706,-1.2845,-0.3400,
2.014277,0.8259,0.3886,0.6716,1.2999,1.5533,-1.9259,-0.1706,-1.2845,-0.3400,
2.015690,0.8994,0.3950,0.6660,1.2999,1.5533,-1.9259,-0.1706,-1.2845,-0.3400,
2.016026,0.8994,0.3950,0.6660,2.8028,2.3113,-1.5542,-0.1706,-1.2845,-0.3400,
2.019642,0.9888,0.4070,0.6604,2.8028,2.3113,-1.5542,-0.1706,-1.2845,-0.3400,
2.020006,0.9888,0.4070,0.6604,2.8028,2.3113,-1.5542,-0.5447,-2.4671,-0.1662,
2.026628,1.0599,0.4212,0.6570,2.8028,2.3113,-1.5542,-0.5447,-2.4671,-0.1662,
2.028029,1.1173,0.4256,0.6600,2.8028,2.3113,-1.5542,-0.5447,-2.4671,-0.1662,
2.034415,1.1400,0.3850,0.8250,2.8028,2.3113,-1.5542,-0.5447,-2.4671,-0.1662,
2.035490,1.2282,0.3559,0.7723,2.8028,2.3113,-1.5542,-0.5447,-2.4671,-0.1662,
2.036283,1.2282,0.3559,0.7723,5.4405,2.3370,0.2419,-0.5447,-2.4671,-0.1662,
2.040059,1.2838,0.3935,0.7051,5.4405,2.3370,0.2419,-0.5447,-2.4671,-0.1662,
2.043832,1.3290,0.4621,0.6268,5.4405,2.3370,0.2419,-0.5447,-2.4671,-0.1662,
2.047711,1.3725,0.5266,0.5058,5.4405,2.3370,0.2419,-0.5447,-2.4671,-0.1662,
2.053789,1.4100,0.5342,0.3985,5.4405,2.3370,0.2419,-0.5447,-2.4671,-0.1662,
2.056803,1.4468,0.4972,0.3311,5.4405,2.3370,0.2419,-0.5447,-2.4671,-0.1662,
2.057873,1.4468,0.4972,0.3311,7.6822,3.8548,-3.6410,-0.5447,-2.4671,-0.1662,
2.059639,1.4708,0.4599,0.3170,7.6822,3.8548,-3.6410,-0.5447,-2.4671,-0.1662,
2.065596,1.4872,0.4422,0.3258,7.6822,3.8548,-3.6410,-0.5447,-2.4671,-0.1662,
2.067210,1.5054,0.4542,0.3499,7.6822,3.8548,-3.6410,-0.5447,-2.4671,-0.1662,
2.073935,1.5235,0.4834,0.3776,7.6822,3.8548,-3.6410,-0.5447,-2.4671,-0.1662,
2.075589,1.5565,0.5209,0.4286,7.6822,3.8548,-3.6410,-0.5447,-2.4671,-0.1662,
2.076157,1.5565,0.5209,0.4286,8.3115,3.3764,-3.4351,-0.5447,-2.4671,-0.1662,
2.079381,1.5878,0.5403,0.4860,8.3115,3.3764,-3.4351,-0.5447,-2.4671,-0.1662,
2.083232,1.6200,0.5367,0.5643,8.3115,3.3764,-3.4351,-0.5447,-2.4671,-0.1662,
2.085223,1.6200,0.5367,0.5643,8.3115,3.3764,-3.4351,-1.8100,-3.0939,-0.8553,
2.087246,1.6422,0.5221,0.6334,8.3115,3.3764,-3.4351,-1.8100,-3.0939,-0.8553,
2.093710,1.6589,0.4922,0.7153,8.3115,3.3764,-3.4351,-1.8100,-3.0939,-0.8553,
2.095176,1.6795,0.4635,0.7809,8.3115,3.3764,-3.4351,-1.8100,-3.0939,-0.8553,
2.095583,1.6795,0.4635,0.7809,9.2395,3.5506,0.2519,-1.8100,-3.0939,-0.8553,
2.099172,1.7146,0.4387,0.8416,9.2395,3.5506,0.2519,-1.8100,-3.0939,-0.8553,
2.102992,1.7510,0.4280,0.8850,9.2395,3.5506,0.2519,-1.8100,-3.0939,-0.8553,
2.108599,1.7909,0.4141,0.9243,9.2395,3.5506,0.2519,-1.8100,-3.0939,-0.8553,
2.113627,1.8365,0.3947,0.9582,9.2395,3.5506,0.2519,-1.8100,-3.0939,-0.8553,
2.114732,1.8814,0.3722,0.9740,9.2395,3.5506,0.2519,-1.8100,-3.0939,-0.8553,
2.115483,1.8814,0.3722,0.9740,10.5752,2.7071,3.0647,-1.8100,-3.0939,-0.8553,
2.118804,1.9277,0.3522,0.9810,10.5752,2.7071,3.0647,-1.8100,-3.0939,-0.8553,
2.123824,1.9756,0.3361,0.9811,10.5752,2.7071,3.0647,-1.8100,-3.0939,-0.8553,
2.127193,2.0275,0.3239,0.9800,10.5752,2.7071,3.0647,-1.8100,-3.0939,-0.8553,
2.133394,2.0678,0.3205,0.9851,10.5752,2.7071,3.0647,-1.8100,-3.0939,-0.8553,
2.134865,2.1041,0.3122,0.9889,10.5752,2.7071,3.0647,-1.8100,-3.0939,-0.8553,
2.135390,2.1041,0.3122,0.9889,12.5316,2.0365,3.7132,-1.8100,-3.0939,-0.8553,
2.140053,2.1353,0.3020,1.0021,12.5316,2.0365,3.7132,-1.8100,-3.0939,-0.8553,
2.143245,2.1766,0.2946,1.0214,12.5316,2.0365,3.7132,-1.8100,-3.0939,-0.8553,
2.146945,2.2308,0.2864,1.0631,12.5316,2.0365,3.7132,-1.8100,-3.0939,-0.8553,
2.153418,2.2674,0.2857,1.1110,12.5316,2.0365,3.7132,-1.8100,-3.0939,-0.8553,
2.154109,2.2674,0.2857,1.1110,12.5316,2.0365,3.7132,-1.7474,-2.5793,-1.9454,
2.154608,2.2953,0.2866,1.1853,12.5316,2.0365,3.7132,-1.7474,-2.5793,-1.9454,
2.156453,2.2953,0.2866,1.1853,14.2043,1.6741,5.3265,-1.7474,-2.5793,-1.9454,
2.159066,2.3051,0.2833,1.2465,14.2043,1.6741,5.3265,-1.7474,-2.5793,-1.9454,
2.163342,2.3118,0.2716,1.3072,14.2043,1.6741,5.3265,-1.7474,-2.5793,-1.9454,
2.166645,2.3146,0.2529,1.3457,14.2043,1.6741,5.3265,-1.7474,-2.5793,-1.9454,
2.173503,2.3161,0.2281,1.3715,14.2043,1.6741,5.3265,-1.7474,-2.5793,-1.9454,
2.174687,2.3168,0.1814,1.3952,14.2043,1.6741,5.3265,-1.7474,-2.5793,-1.9454,
2.175445,2.3168,0.1814,1.3952,14.4506,0.9735,8.2705,-1.7474,-2.5793,-1.9454,
2.178711,2.3151,0.1523,1.4090,14.4506,0.9735,8.2705,-1.7474,-2.5793,-1.9454,
2.182549,2.3027,0.1102,1.4246,14.4506,0.9735,8.2705,-1.7474,-2.5793,-1.9454,
2.186340,2.2829,0.0773,1.4372,14.4506,0.9735,8.2705,-1.7474,-2.5793,-1.9454,
2.193468,2.2556,0.0477,1.4442,14.4506,0.9735,8.2705,-1.7474,-2.5793,-1.9454,
2.194388,2.2304,0.0198,1.4394,14.4506,0.9735,8.2705,-1.7474,-2.5793,-1.9454,
2.195034,2.2304,0.0198,1.4394,13.7199,-1.0749,9.2718,-1.7474,-2.5793,-1.9454,
2.198455,2.2130,-0.0078,1.4251,13.7199,-1.0749,9.2718,-1.7474,-2.5793,-1.9454,
2.202218,2.1869,-0.0391,1.4051,13.7199,-1.0749,9.2718,-1.7474,-2.5793,-1.9454,
2.206705,2.1519,-0.0712,1.3875,13.7199,-1.0749,9.2718,-1.7474,-2.5793,-1.9454,
2.212971,2.1014,-0.1045,1.3823,13.7199,-1.0749,9.2718,-1.7474,-2.5793,-1.9454,
2.214332,2.0498,-0.1377,1.3888,13.7199,-1.0749,9.2718,-1.7474,-2.5793,-1.9454,
2.214821,2.0498,-0.1377,1.3888,12.1603,-2.9375,8.8969,-1.7474,-2.5793,-1.9454,
2.216061,2.0498,-0.1377,1.3888,12.1603,-2.9375,8.8969,-1.2787,-1.0843,-3.7302,
2.218108,2.0105,-0.1638,1.4050,12.1603,-2.9375,8.8969,-1.2787,-1.0843,-3.7302,
2.222956,1.9649,-0.1927,1.4384,12.1603,-2.9375,8.8969,-1.2787,-1.0843,-3.7302,
2.226498,1.9058,-0.2232,1.4896,12.1603,-2.9375,8.8969,-1.2787,-1.0843,-3.7302,
2.232719,1.8431,-0.2496,1.5410,12.1603,-2.9375,8.8969,-1.2787,-1.0843,-3.7302,
2.234080,1.7729,-0.2867,1.6111,12.1603,-2.9375,8.8969,-1.2787,-1.0843,-3.7302,
2.234592,1.7729,-0.2867,1.6111,9.6732,-4.8616,10.6117,-1.2787,-1.0843,-3.7302,
2.239611,1.7194,-0.3163,1.6804,9.6732,-4.8616,10.6117,-1.2787,-1.0843,-3.7302,
2.242810,1.6691,-0.3399,1.7456,9.6732,-4.8616,10.6117,-1.2787,-1.0843,-3.7302,
2.246460,1.6174,-0.3650,1.7958,9.6732,-4.8616,10.6117,-1.2787,-1.0843,-3.7302,
2.252894,1.5667,-0.3890,1.8226,9.6732,-4.8616,10.6117,-1.2787,-1.0843,-3.7302,
2.254805,1.4986,-0.4169,1.8370,9.6732,-4.8616,10.6117,-1.2787,-1.0843,-3.7302,
2.255167,1.4986,-0.4169,1.8370,7.1204,-6.7735,13.4221,-1.2787,-1.0843,-3.7302,
2.258530,1.4361,-0.4348,1.8370,7.1204,-6.7735,13.4221,-1.2787,-1.0843,-3.7302,
2.262132,1.3745,-0.4518,1.8312,7.1204,-6.7735,13.4221,-1.2787,-1.0843,-3.7302,
2.265999,1.3349,-0.4657,1.8267,7.1204,-6.7735,13.4221,-1.2787,-1.0843,-3.7302,
2.273064,1.3021,-0.4779,1.8159,7.1204,-6.7735,13.4221,-1.2787,-1.0843,-3.7302,
2.274370,1.2774,-0.4847,1.8029,7.1204,-6.7735,13.4221,-1.2787,-1.0843,-3.7302,
2.275027,1.2774,-0.4847,1.8029,4.7448,-8.2179,13.3646,-1.2787,-1.0843,-3.7302,
2.277996,1.2497,-0.4904,1.7801,4.7448,-8.2179,13.3646,-1.2787,-1.0843,-3.7302,
2.281850,1.2322,-0.4953,1.7562,4.7448,-8.2179,13.3646,-1.2787,-1.0843,-3.7302,
2.282305,1.2322,-0.4953,1.7562,4.7448,-8.2179,13.3646,0.0080,0.0269,-4.0662,
2.285702,1.2149,-0.4999,1.7320,4.7448,-8.2179,13.3646,0.0080,0.0269,-4.0662,
2.292422,1.1923,-0.5049,1.7104,4.7448,-8.2179,13.3646,0.0080,0.0269,-4.0662,
2.293661,1.1605,-0.5103,1.6943,4.7448,-8.2179,13.3646,0.0080,0.0269,-4.0662,
2.294234,1.1605,-0.5103,1.6943,3.9897,-9.1238,12.3373,0.0080,0.0269,-4.0662,
2.297843,1.1215,-0.5117,1.6869,3.9897,-9.1238,12.3373,0.0080,0.0269,-4.0662,
2.301612,1.0746,-0.5160,1.6813,3.9897,-9.1238,12.3373,0.0080,0.0269,-4.0662,
2.306100,1.0208,-0.5231,1.6741,3.9897,-9.1238,12.3373,0.0080,0.0269,-4.0662,
2.312184,0.9769,-0.5267,1.6657,3.9897,-9.1238,12.3373,0.0080,0.0269,-4.0662,
2.313578,0.9296,-0.5284,1.6489,3.9897,-9.1238,12.3373,0.0080,0.0269,-4.0662,
2.314201,0.9296,-0.5284,1.6489,2.2565,-9.9563,11.8806,0.0080,0.0269,-4.0662,
2.317414,0.8952,-0.5289,1.6215,2.2565,-9.9563,11.8806,0.0080,0.0269,-4.0662,
2.322633,0.8541,-0.5290,1.5838,2.2565,-9.9563,11.8806,0.0080,0.0269,-4.0662,
2.325759,0.8084,-0.5241,1.5437,2.2565,-9.9563,11.8806,0.0080,0.0269,-4.0662,
2.331968,0.7622,-0.5112,1.4993,2.2565,-9.9563,11.8806,0.0080,0.0269,-4.0662,
2.333338,0.7160,-0.4993,1.4388,2.2565,-9.9563,11.8806,0.0080,0.0269,-4.0662,
2.333914,0.7160,-0.4993,1.4388,0.6162,-10.4276,10.2198,0.0080,0.0269,-4.0662,
2.337257,0.6913,-0.4902,1.3908,0.6162,-10.4276,10.2198,0.0080,0.0269,-4.0662,
2.342921,0.6673,-0.4883,1.3383,0.6162,-10.4276,10.2198,0.0080,0.0269,-4.0662,
2.345442,0.6435,-0.4883,1.2954,0.6162,-10.4276,10.2198,0.0080,0.0269,-4.0662,
2.347373,0.6435,-0.4883,1.2954,0.6162,-10.4276,10.2198,1.6376,0.9329,-3.5994,
2.352151,0.6163,-0.4868,1.2594,0.6162,-10.4276,10.2198,1.6376,0.9329,-3.5994,
2.353201,0.5768,-0.4818,1.2137,0.6162,-10.4276,10.2198,1.6376,0.9329,-3.5994,
2.354102,0.5768,-0.4818,1.2137,-0.3003,-10.8026,7.8950,1.6376,0.9329,-3.5994,
2.357779,0.5466,-0.4748,1.1872,-0.3003,-10.8026,7.8950,1.6376,0.9329,-3.5994,
2.361361,0.5102,-0.4640,1.1565,-0.3003,-10.8026,7.8950,1.6376,0.9329,-3.5994,
2.365203,0.4835,-0.4573,1.1368,-0.3003,-10.8026,7.8950,1.6376,0.9329,-3.5994,
2.372538,0.4525,-0.4461,1.1162,-0.3003,-10.8026,7.8950,1.6376,0.9329,-3.5994,
2.373977,0.4139,-0.4358,1.0953,-0.3003,-10.8026,7.8950,1.6376,0.9329,-3.5994,
2.375498,0.4139,-0.4358,1.0953,-1.3670,-10.9700,6.5877,1.6376,0.9329,-3.5994,
2.377268,0.3793,-0.4256,1.0757,-1.3670,-10.9700,6.5877,1.6376,0.9329,-3.5994,
2.381142,0.3463,-0.4199,1.0531,-1.3670,-10.9700,6.5877,1.6376,0.9329,-3.5994,
2.385055,0.3085,-0.4131,1.0250,-1.3670,-10.9700,6.5877,1.6376,0.9329,-3.5994,
2.391912,0.2853,-0.4144,1.0043,-1.3670,-10.9700,6.5877,1.6376,0.9329,-3.5994,
2.393254,0.2625,-0.4102,0.9801,-1.3670,-10.9700,6.5877,1.6376,0.9329,-3.5994,
2.394028,0.2625,-0.4102,0.9801,-2.4630,-11.1819,5.5949,1.6376,0.9329,-3.5994,
2.397001,0.2422,-0.4026,0.9589,-2.4630,-11.1819,5.5949,1.6376,0.9329,-3.5994,
2.400852,0.2219,-0.3944,0.9381,-2.4630,-11.1819,5.5949,1.6376,0.9329,-3.5994,
2.406061,0.2040,-0.3870,0.9060,-2.4630,-11.1819,5.5949,1.6376,0.9329,-3.5994,
2.412292,0.1884,-0.3742,0.8764,-2.4630,-11.1819,5.5949,1.6376,0.9329,-3.5994,
2.414629,0.1884,-0.3742,0.8764,-2.8370,-11.2602,4.5118,1.6376,0.9329,-3.5994,
2.415901,0.1674,-0.3570,0.8484,-2.8370,-11.2602,4.5118,1.6376,0.9329,-3.5994,
2.416887,0.1674,-0.3570,0.8484,-2.8370,-11.2602,4.5118,2.1069,1.5775,-2.5997,
2.418047,0.1554,-0.3456,0.8254,-2.8370,-11.2602,4.5118,2.1069,1.5775,-2.5997,
2.421346,0.1515,-0.3458,0.8137,-2.8370,-11.2602,4.5118,2.1069,1.5775,-2.5997,
2.425723,0.1507,-0.3504,0.7995,-2.8370,-11.2602,4.5118,2.1069,1.5775,-2.5997,
2.431232,0.1465,-0.3551,0.7889,-2.8370,-11.2602,4.5118,2.1069,1.5775,-2.5997,
2.432972,0.1329,-0.3541,0.7753,-2.8370,-11.2602,4.5118,2.1069,1.5775,-2.5997,
2.433873,0.1329,-0.3541,0.7753,-2.7433,-11.4468,3.8269,2.1069,1.5775,-2.5997,
2.436718,0.1190,-0.3518,0.7615,-2.7433,-11.4468,3.8269,2.1069,1.5775,-2.5997,
2.441184,0.1094,-0.3483,0.7424,-2.7433,-11.4468,3.8269,2.1069,1.5775,-2.5997,
2.444720,0.1039,-0.3502,0.7314,-2.7433,-11.4468,3.8269,2.1069,1.5775,-2.5997,
2.450838,0.0994,-0.3524,0.7210,-2.7433,-11.4468,3.8269,2.1069,1.5775,-2.5997,
2.452528,0.0909,-0.3524,0.7152,-2.7433,-11.4468,3.8269,2.1069,1.5775,-2.5997,
2.453193,0.0909,-0.3524,0.7152,-2.7219,-11.7351,3.3318,2.1069,1.5775,-2.5997,
2.456898,0.0725,-0.3474,0.7079,-2.7219,-11.7351,3.3318,2.1069,1.5775,-2.5997,
2.460782,0.0487,-0.3390,0.7020,-2.7219,-11.7351,3.3318,2.1069,1.5775,-2.5997,
2.465029,0.0258,-0.3302,0.6987,-2.7219,-11.7351,3.3318,2.1069,1.5775,-2.5997,
2.470947,0.0060,-0.3265,0.6922,-2.7219,-11.7351,3.3318,2.1069,1.5775,-2.5997,
2.473219,-0.0051,-0.3343,0.6865,-2.7219,-11.7351,3.3318,2.1069,1.5775,-2.5997,
2.474278,-0.0051,-0.3343,0.6865,-3.1336,-11.7934,3.2920,2.1069,1.5775,-2.5997,
2.476853,-0.0150,-0.3417,0.6819,-3.1336,-11.7934,3.2920,2.1069,1.5775,-2.5997,
2.479274,-0.0150,-0.3417,0.6819,-3.1336,-11.7934,3.2920,2.3760,1.9218,-1.6117,
2.481603,-0.0272,-0.3433,0.6768,-3.1336,-11.7934,3.2920,2.3760,1.9218,-1.6117,
2.484592,-0.0400,-0.3325,0.6696,-3.1336,-11.7934,3.2920,2.3760,1.9218,-1.6117,
2.491301,-0.0478,-0.3229,0.6599,-3.1336,-11.7934,3.2920,2.3760,1.9218,-1.6117,
2.492802,-0.0495,-0.3216,0.6412,-3.1336,-11.7934,3.2920,2.3760,1.9218,-1.6117,
2.493798,-0.0495,-0.3216,0.6412,-3.1994,-12.0032,3.2416,2.3760,1.9218,-1.6117,
2.497096,-0.0469,-0.3277,0.6227,-3.1994,-12.0032,3.2416,2.3760,1.9218,-1.6117,
2.501485,-0.0494,-0.3368,0.6055,-3.1994,-12.0032,3.2416,2.3760,1.9218,-1.6117,
2.508245,-0.0581,-0.3373,0.5848,-3.1994,-12.0032,3.2416,2.3760,1.9218,-1.6117,
2.511059,-0.0650,-0.3322,0.5724,-3.1994,-12.0032,3.2416,2.3760,1.9218,-1.6117,
2.512297,-0.0736,-0.3257,0.5614,-3.1994,-12.0032,3.2416,2.3760,1.9218,-1.6117,
2.513196,-0.0736,-0.3257,0.5614,-3.0060,-12.3069,2.6992,2.3760,1.9218,-1.6117,
2.516223,-0.0787,-0.3258,0.5518,-3.0060,-12.3069,2.6992,2.3760,1.9218,-1.6117,
2.520308,-0.0820,-0.3279,0.5398,-3.0060,-12.3069,2.6992,2.3760,1.9218,-1.6117,
2.524294,-0.0827,-0.3352,0.5239,-3.0060,-12.3069,2.6992,2.3760,1.9218,-1.6117,
2.530690,-0.0858,-0.3411,0.5060,-3.0060,-12.3069,2.6992,2.3760,1.9218,-1.6117,
2.531721,-0.0878,-0.3349,0.4754,-3.0060,-12.3069,2.6992,2.3760,1.9218,-1.6117,
2.532670,-0.0878,-0.3349,0.4754,-2.8887,-12.5788,2.4039,2.3760,1.9218,-1.6117,
2.536034,-0.0875,-0.3300,0.4565,-2.8887,-12.5788,2.4039,2.3760,1.9218,-1.6117,
2.540729,-0.0815,-0.3246,0.4284,-2.8887,-12.5788,2.4039,2.3760,1.9218,-1.6117,
2.543997,-0.0722,-0.3220,0.3974,-2.8887,-12.5788,2.4039,2.3760,1.9218,-1.6117,
2.544877,-0.0722,-0.3220,0.3974,-2.8887,-12.5788,2.4039,2.8778,2.5553,-0.4803,
2.550259,-0.0667,-0.3218,0.3710,-2.8887,-12.5788,2.4039,2.8778,2.5553,-0.4803,
2.551651,-0.0655,-0.3265,0.3402,-2.8887,-12.5788,2.4039,2.8778,2.5553,-0.4803,
2.552288,-0.0655,-0.3265,0.3402,-2.4633,-12.5443,1.4885,2.8778,2.5553,-0.4803,
2.556539,-0.0656,-0.3298,0.3147,-2.4633,-12.5443,1.4885,2.8778,2.5553,-0.4803,
2.559798,-0.0690,-0.3307,0.2912,-2.4633,-12.5443,1.4885,2.8778,2.5553,-0.4803,
2.563777,-0.0729,-0.3238,0.2667,-2.4633,-12.5443,1.4885,2.8778,2.5553,-0.4803,
2.570235,-0.0806,-0.3093,0.2466,-2.4633,-12.5443,1.4885,2.8778,2.5553,-0.4803,
2.573206,-0.0863,-0.2989,0.2288,-2.4633,-12.5443,1.4885,2.8778,2.5553,-0.4803,
2.574533,-0.0863,-0.2989,0.2288,-2.4246,-12.5372,0.7060,2.8778,2.5553,-0.4803,
2.576438,-0.0895,-0.2941,0.2157,-2.4246,-12.5372,0.7060,2.8778,2.5553,-0.4803,
2.580071,-0.0902,-0.2945,0.2031,-2.4246,-12.5372,0.7060,2.8778,2.5553,-0.4803,
2.584031,-0.0876,-0.2965,0.1856,-2.4246,-12.5372,0.7060,2.8778,2.5553,-0.4803,
2.592108,-0.0834,-0.2940,0.1727,-2.4246,-12.5372,0.7060,2.8778,2.5553,-0.4803,
2.594330,-0.0841,-0.2804,0.1559,-2.4246,-12.5372,0.7060,2.8778,2.5553,-0.4803,
2.595131,-0.0841,-0.2804,0.1559,-2.3542,-12.4679,0.4307,2.8778,2.5553,-0.4803,
2.595888,-0.0899,-0.2644,0.1387,-2.3542,-12.4679,0.4307,2.8778,2.5553,-0.4803,
2.599812,-0.0872,-0.2510,0.1121,-2.3542,-12.4679,0.4307,2.8778,2.5553,-0.4803,
2.605904,-0.0786,-0.2473,0.0863,-2.3542,-12.4679,0.4307,2.8778,2.5553,-0.4803,
2.609965,-0.0628,-0.2490,0.0452,-2.3542,-12.4679,0.4307,2.8778,2.5553,-0.4803,
2.610946,-0.0628,-0.2490,0.0452,-2.3542,-12.4679,0.4307,3.1430,2.7684,0.5494,
2.611513,-0.0449,-0.2503,0.0050,-2.3542,-12.4679,0.4307,3.1430,2.7684,0.5494,
2.613422,-0.0449,-0.2503,0.0050,-2.1320,-12.0894,-0.3315,3.1430,2.7684,0.5494,
2.615880,-0.0308,-0.2465,-0.0360,-2.1320,-12.0894,-0.3315,3.1430,2.7684,0.5494,
2.619977,-0.0149,-0.2426,-0.0860,-2.1320,-12.0894,-0.3315,3.1430,2.7684,0.5494,
2.623635,-0.0029,-0.2423,-0.1232,-2.1320,-12.0894,-0.3315,3.1430,2.7684,0.5494,
2.629698,0.0051,-0.2365,-0.1610,-2.1320,-12.0894,-0.3315,3.1430,2.7684,0.5494,
2.631369,0.0054,-0.2268,-0.1840,-2.1320,-12.0894,-0.3315,3.1430,2.7684,0.5494,
2.632379,0.0054,-0.2268,-0.1840,-1.5503,-11.9771,-1.8612,3.1430,2.7684,0.5494,
2.635282,0.0053,-0.2125,-0.1986,-1.5503,-11.9771,-1.8612,3.1430,2.7684,0.5494,
2.639401,0.0067,-0.2097,-0.2019,-1.5503,-11.9771,-1.8612,3.1430,2.7684,0.5494,
2.643436,0.0109,-0.2106,-0.2049,-1.5503,-11.9771,-1.8612,3.1430,2.7684,0.5494,
2.650076,0.0155,-0.2152,-0.2081,-1.5503,-11.9771,-1.8612,3.1430,2.7684,0.5494,
2.652308,0.0113,-0.2132,-0.2157,-1.5503,-11.9771,-1.8612,3.1430,2.7684,0.5494,
2.653731,0.0113,-0.2132,-0.2157,-1.5998,-11.7480,-1.8261,3.1430,2.7684,0.5494,
2.657485,-0.0004,-0.2091,-0.2198,-1.5998,-11.7480,-1.8261,3.1430,2.7684,0.5494,
2.659169,-0.0154,-0.2042,-0.2232,-1.5998,-11.7480,-1.8261,3.1430,2.7684,0.5494,
2.663111,-0.0264,-0.2013,-0.2211,-1.5998,-11.7480,-1.8261,3.1430,2.7684,0.5494,
2.669690,-0.0227,-0.2036,-0.2208,-1.5998,-11.7480,-1.8261,3.1430,2.7684,0.5494,
2.672473,-0.0107,-0.2085,-0.2218,-1.5998,-11.7480,-1.8261,3.1430,2.7684,0.5494,
2.673818,-0.0107,-0.2085,-0.2218,-2.1503,-11.5835,-1.5098,3.1430,2.7684,0.5494,
2.675075,-0.0079,-0.2092,-0.2295,-2.1503,-11.5835,-1.5098,3.1430,2.7684,0.5494,
2.675976,-0.0079,-0.2092,-0.2295,-2.1503,-11.5835,-1.5098,2.9035,2.2741,1.2826,
2.679264,-0.0129,-0.2081,-0.2416,-2.1503,-11.5835,-1.5098,2.9035,2.2741,1.2826,
2.682892,-0.0181,-0.2038,-0.2577,-2.1503,-11.5835,-1.5098,2.9035,2.2741,1.2826,
2.689440,-0.0174,-0.1990,-0.2685,-2.1503,-11.5835,-1.5098,2.9035,2.2741,1.2826,
2.690852,-0.0079,-0.1994,-0.2783,-2.1503,-11.5835,-1.5098,2.9035,2.2741,1.2826,
2.691599,-0.0079,-0.1994,-0.2783,-2.3499,-11.4401,-1.5504,2.9035,2.2741,1.2826,
2.694753,0.0040,-0.1983,-0.2873,-2.3499,-11.4401,-1.5504,2.9035,2.2741,1.2826,
2.698877,0.0238,-0.1968,-0.3084,-2.3499,-11.4401,-1.5504,2.9035,2.2741,1.2826,
2.703066,0.0400,-0.1897,-0.3349,-2.3499,-11.4401,-1.5504,2.9035,2.2741,1.2826,
2.709197,0.0630,-0.1813,-0.3646,-2.3499,-11.4401,-1.5504,2.9035,2.2741,1.2826,
2.710643,0.0887,-0.1778,-0.3866,-2.3499,-11.4401,-1.5504,2.9035,2.2741,1.2826,
2.711480,0.0887,-0.1778,-0.3866,-1.9015,-11.1287,-2.0877,2.9035,2.2741,1.2826,
2.715235,0.1262,-0.1772,-0.4062,-1.9015,-11.1287,-2.0877,2.9035,2.2741,1.2826,
2.718916,0.1847,-0.1772,-0.4356,-1.9015,-11.1287,-2.0877,2.9035,2.2741,1.2826,
2.723198,0.2413,-0.1779,-0.4659,-1.9015,-11.1287,-2.0877,2.9035,2.2741,1.2826,
2.729912,0.3032,-0.1749,-0.5065,-1.9015,-11.1287,-2.0877,2.9035,2.2741,1.2826,
2.730857,0.3594,-0.1708,-0.5507,-1.9015,-11.1287,-2.0877,2.9035,2.2741,1.2826,
2.731509,0.3594,-0.1708,-0.5507,0.0025,-10.8462,-3.0294,2.9035,2.2741,1.2826,
2.734517,0.4093,-0.1682,-0.5876,0.0025,-10.8462,-3.0294,2.9035,2.2741,1.2826,
2.738610,0.4623,-0.1671,-0.6212,0.0025,-10.8462,-3.0294,2.9035,2.2741,1.2826,
2.740742,0.4623,-0.1671,-0.6212,0.0025,-10.8462,-3.0294,2.8525,2.6423,2.4429,
2.744395,0.5177,-0.1700,-0.6495,0.0025,-10.8462,-3.0294,2.8525,2.6423,2.4429,
2.748855,0.5599,-0.1732,-0.6750,0.0025,-10.8462,-3.0294,2.8525,2.6423,2.4429,
2.750312,0.5987,-0.1762,-0.6959,0.0025,-10.8462,-3.0294,2.8525,2.6423,2.4429,
2.751092,0.5987,-0.1762,-0.6959,1.9929,-10.5668,-4.3175,2.8525,2.6423,2.4429,
2.755180,0.6240,-0.1758,-0.7125,1.9929,-10.5668,-4.3175,2.8525,2.6423,2.4429,
2.760512,0.6420,-0.1724,-0.7202,1.9929,-10.5668,-4.3175,2.8525,2.6423,2.4429,
2.762472,0.6619,-0.1690,-0.7242,1.9929,-10.5668,-4.3175,2.8525,2.6423,2.4429,
2.768779,0.6780,-0.1662,-0.7263,1.9929,-10.5668,-4.3175,2.8525,2.6423,2.4429,
2.771471,0.6950,-0.1656,-0.7383,1.9929,-10.5668,-4.3175,2.8525,2.6423,2.4429,
2.772794,0.6950,-0.1656,-0.7383,2.6005,-10.1934,-4.5464,2.8525,2.6423,2.4429,
2.774239,0.7052,-0.1602,-0.7549,2.6005,-10.1934,-4.5464,2.8525,2.6423,2.4429,
2.778447,0.7045,-0.1297,-0.7848,2.6005,-10.1934,-4.5464,2.8525,2.6423,2.4429,
2.782064,0.7028,-0.0938,-0.8101,2.6005,-10.1934,-4.5464,2.8525,2.6423,2.4429,
2.788554,0.7037,-0.0712,-0.8223,2.6005,-10.1934,-4.5464,2.8525,2.6423,2.4429,
2.790352,0.7118,-0.0723,-0.8170,2.6005,-10.1934,-4.5464,2.8525,2.6423,2.4429,
2.791124,0.7118,-0.0723,-0.8170,2.3392,-8.9093,-5.2569,2.8525,2.6423,2.4429,
2.794189,0.7177,-0.0820,-0.7938,2.3392,-8.9093,-5.2569,2.8525,2.6423,2.4429,
2.797981,0.7133,-0.0940,-0.7661,2.3392,-8.9093,-5.2569,2.8525,2.6423,2.4429,
2.801855,0.6967,-0.1026,-0.7472,2.3392,-8.9093,-5.2569,2.8525,2.6423,2.4429,
2.808295,0.6821,-0.1024,-0.7374,2.3392,-8.9093,-5.2569,2.8525,2.6423,2.4429,
2.809315,0.6821,-0.1024,-0.7374,2.3392,-8.9093,-5.2569,2.3281,2.0529,2.4744,
2.809938,0.6775,-0.1033,-0.7390,2.3392,-8.9093,-5.2569,2.3281,2.0529,2.4744,
2.810797,0.6775,-0.1033,-0.7390,1.6043,-8.8442,-4.2606,2.3281,2.0529,2.4744,
2.814137,0.6864,-0.1113,-0.7471,1.6043,-8.8442,-4.2606,2.3281,2.0529,2.4744,
2.818040,0.7084,-0.1202,-0.7608,1.6043,-8.8442,-4.2606,2.3281,2.0529,2.4744,
2.822084,0.7325,-0.1311,-0.7847,1.6043,-8.8442,-4.2606,2.3281,2.0529,2.4744,
2.828983,0.7546,-0.1334,-0.8243,1.6043,-8.8442,-4.2606,2.3281,2.0529,2.4744,
2.829748,0.7559,-0.1178,-0.8787,1.6043,-8.8442,-4.2606,2.3281,2.0529,2.4744,
2.830551,0.7559,-0.1178,-0.8787,1.8093,-8.7472,-4.9813,2.3281,2.0529,2.4744,
2.833762,0.7551,-0.0927,-0.9312,1.8093,-8.7472,-4.9813,2.3281,2.0529,2.4744,
2.838467,0.7625,-0.0747,-0.9826,1.8093,-8.7472,-4.9813,2.3281,2.0529,2.4744,
2.841722,0.7875,-0.0723,-1.0244,1.8093,-8.7472,-4.9813,2.3281,2.0529,2.4744,
2.848099,0.8185,-0.0845,-1.0524,1.8093,-8.7472,-4.9813,2.3281,2.0529,2.4744,
2.849555,0.8555,-0.0975,-1.0773,1.8093,-8.7472,-4.9813,2.3281,2.0529,2.4744,
2.850040,0.8555,-0.0975,-1.0773,1.9391,-7.8053,-7.0703,2.3281,2.0529,2.4744,
2.854279,0.8836,-0.1003,-1.0959,1.9391,-7.8053,-7.0703,2.3281,2.0529,2.4744,
2.857770,0.9057,-0.0978,-1.1161,1.9391,-7.8053,-7.0703,2.3281,2.0529,2.4744,
2.861800,0.9271,-0.0851,-1.1446,1.9391,-7.8053,-7.0703,2.3281,2.0529,2.4744,
2.867873,0.9428,-0.0798,-1.1692,1.9391,-7.8053,-7.0703,2.3281,2.0529,2.4744,
2.869402,0.9653,-0.0846,-1.1948,1.9391,-7.8053,-7.0703,2.3281,2.0529,2.4744,
2.871360,0.9653,-0.0846,-1.1948,2.6653,-7.2619,-8.1252,2.3281,2.0529,2.4744,
2.872217,0.9653,-0.0846,-1.1948,2.6653,-7.2619,-8.1252,1.7709,1.6860,2.9097,
2.873444,0.9827,-0.0977,-1.2071,2.6653,-7.2619,-8.1252,1.7709,1.6860,2.9097,
2.877644,1.0020,-0.1126,-1.2139,2.6653,-7.2619,-8.1252,1.7709,1.6860,2.9097,
2.881588,1.0146,-0.1217,-1.2146,2.6653,-7.2619,-8.1252,1.7709,1.6860,2.9097,
2.888665,1.0128,-0.1224,-1.2191,2.6653,-7.2619,-8.1252,1.7709,1.6860,2.9097,
2.889436,1.0120,-0.1156,-1.2234,2.6653,-7.2619,-8.1252,1.7709,1.6860,2.9097,
2.889908,1.0120,-0.1156,-1.2234,2.9033,-7.1892,-8.6031,1.7709,1.6860,2.9097,
2.893882,1.0170,-0.1148,-1.2237,2.9033,-7.1892,-8.6031,1.7709,1.6860,2.9097,
2.897411,1.0246,-0.1245,-1.2179,2.9033,-7.1892,-8.6031,1.7709,1.6860,2.9097,
2.901443,1.0406,-0.1423,-1.2090,2.9033,-7.1892,-8.6031,1.7709,1.6860,2.9097,
2.907584,1.0621,-0.1619,-1.1966,2.9033,-7.1892,-8.6031,1.7709,1.6860,2.9097,
2.909190,1.0747,-0.1638,-1.1866,2.9033,-7.1892,-8.6031,1.7709,1.6860,2.9097,
2.909898,1.0747,-0.1638,-1.1866,2.9123,-7.0272,-8.4794,1.7709,1.6860,2.9097,
2.913251,1.0821,-0.1502,-1.1796,2.9123,-7.0272,-8.4794,1.7709,1.6860,2.9097,
2.917149,1.0868,-0.1422,-1.1709,2.9123,-7.0272,-8.4794,1.7709,1.6860,2.9097,
2.921285,1.1055,-0.1461,-1.1538,2.9123,-7.0272,-8.4794,1.7709,1.6860,2.9097,
2.927638,1.1379,-0.1623,-1.1349,2.9123,-7.0272,-8.4794,1.7709,1.6860,2.9097,
2.928990,1.1810,-0.1850,-1.1112,2.9123,-7.0272,-8.4794,1.7709,1.6860,2.9097,
2.929580,1.1810,-0.1850,-1.1112,3.2443,-6.5184,-8.0251,1.7709,1.6860,2.9097,
2.932994,1.2173,-0.1980,-1.0925,3.2443,-6.5184,-8.0251,1.7709,1.6860,2.9097,
2.937755,1.2430,-0.2009,-1.0826,3.2443,-6.5184,-8.0251,1.7709,1.6860,2.9097,
2.938847,1.2430,-0.2009,-1.0826,3.2443,-6.5184,-8.0251,0.2191,1.2120,3.0020,
2.940996,1.2486,-0.1867,-1.0774,3.2443,-6.5184,-8.0251,0.2191,1.2120,3.0020,
2.947496,1.2370,-0.1770,-1.0707,3.2443,-6.5184,-8.0251,0.2191,1.2120,3.0020,
2.949052,1.2219,-0.1794,-1.0602,3.2443,-6.5184,-8.0251,0.2191,1.2120,3.0020,
2.949742,1.2219,-0.1794,-1.0602,3.8511,-6.1365,-7.5698,0.2191,1.2120,3.0020,
2.953008,1.2158,-0.1873,-1.0400,3.8511,-6.1365,-7.5698,0.2191,1.2120,3.0020,
2.957062,1.2120,-0.1974,-1.0164,3.8511,-6.1365,-7.5698,0.2191,1.2120,3.0020,
2.961395,1.2135,-0.2012,-1.0000,3.8511,-6.1365,-7.5698,0.2191,1.2120,3.0020,
2.967462,1.2175,-0.2019,-0.9914,3.8511,-6.1365,-7.5698,0.2191,1.2120,3.0020,
2.968535,1.2411,-0.1989,-0.9909,3.8511,-6.1365,-7.5698,0.2191,1.2120,3.0020,
2.969831,1.2411,-0.1989,-0.9909,3.3437,-5.8723,-6.9731,0.2191,1.2120,3.0020,
2.973538,1.2624,-0.2041,-0.9907,3.3437,-5.8723,-6.9731,0.2191,1.2120,3.0020,
2.976842,1.3004,-0.2211,-0.9896,3.3437,-5.8723,-6.9731,0.2191,1.2120,3.0020,
2.981552,1.3360,-0.2364,-0.9917,3.3437,-5.8723,-6.9731,0.2191,1.2120,3.0020,
2.987606,1.3719,-0.2479,-0.9963,3.3437,-5.8723,-6.9731,0.2191,1.2120,3.0020,
2.989295,1.3929,-0.2474,-1.0041,3.3437,-5.8723,-6.9731,0.2191,1.2120,3.0020,
2.990019,1.3929,-0.2474,-1.0041,4.6015,-5.8003,-7.1641,0.2191,1.2120,3.0020,
2.992721,1.4041,-0.2526,-1.0066,4.6015,-5.8003,-7.1641,0.2191,1.2120,3.0020,
2.997257,1.4095,-0.2665,-1.0148,4.6015,-5.8003,-7.1641,0.2191,1.2120,3.0020,
3.000754,1.4192,-0.2883,-1.0176,4.6015,-5.8003,-7.1641,0.2191,1.2120,3.0020,
3.002519,1.4192,-0.2883,-1.0176,4.6015,-5.8003,-7.1641,-0.4904,0.3191,2.9677,
3.006956,1.4330,-0.3152,-1.0270,4.6015,-5.8003,-7.1641,-0.4904,0.3191,2.9677,
3.008528,1.4487,-0.3389,-1.0408,4.6015,-5.8003,-7.1641,-0.4904,0.3191,2.9677,
3.009502,1.4487,-0.3389,-1.0408,4.9846,-5.9217,-7.5592,-0.4904,0.3191,2.9677,
3.012471,1.4629,-0.3488,-1.0531,4.9846,-5.9217,-7.5592,-0.4904,0.3191,2.9677,
3.016535,1.4674,-0.3546,-1.0589,4.9846,-5.9217,-7.5592,-0.4904,0.3191,2.9677,
3.020795,1.4710,-0.3630,-1.0529,4.9846,-5.9217,-7.5592,-0.4904,0.3191,2.9677,
3.026759,1.4708,-0.3770,-1.0320,4.9846,-5.9217,-7.5592,-0.4904,0.3191,2.9677,
3.028305,1.4633,-0.3856,-1.0066,4.9846,-5.9217,-7.5592,-0.4904,0.3191,2.9677,
3.029075,1.4633,-0.3856,-1.0066,5.1893,-5.9950,-7.6912,-0.4904,0.3191,2.9677,
3.032293,1.4495,-0.3779,-0.9870,5.1893,-5.9950,-7.6912,-0.4904,0.3191,2.9677,
3.037404,1.4361,-0.3684,-0.9672,5.1893,-5.9950,-7.6912,-0.4904,0.3191,2.9677,
3.040278,1.4311,-0.3668,-0.9436,5.1893,-5.9950,-7.6912,-0.4904,0.3191,2.9677,
3.046642,1.4382,-0.3796,-0.9218,5.1893,-5.9950,-7.6912,-0.4904,0.3191,2.9677,
3.048162,1.4545,-0.4010,-0.8957,5.1893,-5.9950,-7.6912,-0.4904,0.3191,2.9677,
3.048877,1.4545,-0.4010,-0.8957,4.7385,-5.5147,-6.6568,-0.4904,0.3191,2.9677,
3.052210,1.4696,-0.4141,-0.8798,4.7385,-5.5147,-6.6568,-0.4904,0.3191,2.9677,
3.056527,1.4842,-0.4180,-0.8671,4.7385,-5.5147,-6.6568,-0.4904,0.3191,2.9677,
3.060212,1.4908,-0.4114,-0.8651,4.7385,-5.5147,-6.6568,-0.4904,0.3191,2.9677,
3.066379,1.4995,-0.4054,-0.8726,4.7385,-5.5147,-6.6568,-0.4904,0.3191,2.9677,
3.068028,1.5122,-0.4108,-0.8827,4.7385,-5.5147,-6.6568,-0.4904,0.3191,2.9677,
3.068491,1.5122,-0.4108,-0.8827,4.7385,-5.5147,-6.6568,-1.0487,-0.1600,3.0397,
3.068906,1.5122,-0.4108,-0.8827,5.2583,-5.2779,-6.2015,-1.0487,-0.1600,3.0397,
3.073389,1.5284,-0.4271,-0.8964,5.2583,-5.2779,-6.2015,-1.0487,-0.1600,3.0397,
3.076265,1.5507,-0.4487,-0.9109,5.2583,-5.2779,-6.2015,-1.0487,-0.1600,3.0397,
3.080372,1.5713,-0.4613,-0.9266,5.2583,-5.2779,-6.2015,-1.0487,-0.1600,3.0397,
3.088139,1.5898,-0.4650,-0.9541,5.2583,-5.2779,-6.2015,-1.0487,-0.1600,3.0397,
3.088961,1.6115,-0.4697,-0.9915,5.2583,-5.2779,-6.2015,-1.0487,-0.1600,3.0397,
3.089480,1.6115,-0.4697,-0.9915,6.0736,-5.2943,-6.9896,-1.0487,-0.1600,3.0397,
3.091759,1.6292,-0.4761,-1.0234,6.0736,-5.2943,-6.9896,-1.0487,-0.1600,3.0397,
3.095689,1.6453,-0.4916,-1.0505,6.0736,-5.2943,-6.9896,-1.0487,-0.1600,3.0397,
3.099794,1.6597,-0.5122,-1.0692,6.0736,-5.2943,-6.9896,-1.0487,-0.1600,3.0397,
3.106909,1.6596,-0.5229,-1.0760,6.0736,-5.2943,-6.9896,-1.0487,-0.1600,3.0397,
3.109472,1.6596,-0.5229,-1.0760,6.7537,-5.3090,-8.1389,-1.0487,-0.1600,3.0397,
3.109789,1.6489,-0.5254,-1.0786,6.7537,-5.3090,-8.1389,-1.0487,-0.1600,3.0397,
3.111530,1.6320,-0.5251,-1.0710,6.7537,-5.3090,-8.1389,-1.0487,-0.1600,3.0397,
3.115530,1.6128,-0.5407,-1.0591,6.7537,-5.3090,-8.1389,-1.0487,-0.1600,3.0397,
3.120234,1.5952,-0.5620,-1.0421,6.7537,-5.3090,-8.1389,-1.0487,-0.1600,3.0397,
3.126131,1.5781,-0.5797,-1.0191,6.7537,-5.3090,-8.1389,-1.0487,-0.1600,3.0397,
3.127835,1.5586,-0.5956,-0.9892,6.7537,-5.3090,-8.1389,-1.0487,-0.1600,3.0397,
3.128389,1.5586,-0.5956,-0.9892,5.9754,-5.3941,-7.4787,-1.0487,-0.1600,3.0397,
3.131927,1.5393,-0.6034,-0.9599,5.9754,-5.3941,-7.4787,-1.0487,-0.1600,3.0397,
3.133847,1.5393,-0.6034,-0.9599,5.9754,-5.3941,-7.4787,-1.9244,-0.5312,2.8152,
3.136028,1.5077,-0.6083,-0.9203,5.9754,-5.3941,-7.4787,-1.9244,-0.5312,2.8152,
3.140404,1.4826,-0.6193,-0.8842,5.9754,-5.3941,-7.4787,-1.9244,-0.5312,2.8152,
3.146525,1.4593,-0.6369,-0.8461,5.9754,-5.3941,-7.4787,-1.9244,-0.5312,2.8152,
3.147508,1.4335,-0.6634,-0.7934,5.9754,-5.3941,-7.4787,-1.9244,-0.5312,2.8152,
3.148717,1.4335,-0.6634,-0.7934,4.8806,-5.4887,-5.6431,-1.9244,-0.5312,2.8152,
3.151876,1.4254,-0.6791,-0.7646,4.8806,-5.4887,-5.6431,-1.9244,-0.5312,2.8152,
3.156852,1.4213,-0.7008,-0.7359,4.8806,-5.4887,-5.6431,-1.9244,-0.5312,2.8152,
3.160076,1.4193,-0.7138,-0.7177,4.8806,-5.4887,-5.6431,-1.9244,-0.5312,2.8152,
3.166063,1.4122,-0.7233,-0.7054,4.8806,-5.4887,-5.6431,-1.9244,-0.5312,2.8152,
3.167274,1.4107,-0.7321,-0.6981,4.8806,-5.4887,-5.6431,-1.9244,-0.5312,2.8152,
3.167909,1.4107,-0.7321,-0.6981,4.5059,-5.9058,-4.1256,-1.9244,-0.5312,2.8152,
3.171953,1.4126,-0.7442,-0.6904,4.5059,-5.9058,-4.1256,-1.9244,-0.5312,2.8152,
3.175478,1.4153,-0.7644,-0.6810,4.5059,-5.9058,-4.1256,-1.9244,-0.5312,2.8152,
3.179398,1.4187,-0.7902,-0.6712,4.5059,-5.9058,-4.1256,-1.9244,-0.5312,2.8152,
3.185687,1.4170,-0.8069,-0.6586,4.5059,-5.9058,-4.1256,-1.9244,-0.5312,2.8152,
3.189407,1.4155,-0.8147,-0.6436,4.5059,-5.9058,-4.1256,-1.9244,-0.5312,2.8152,
3.191983,1.4155,-0.8147,-0.6436,4.6730,-6.2814,-3.4958,-1.9244,-0.5312,2.8152,
3.194647,1.4227,-0.8132,-0.6372,4.6730,-6.2814,-3.4958,-1.9244,-0.5312,2.8152,
3.196898,1.4421,-0.8135,-0.6329,4.6730,-6.2814,-3.4958,-1.9244,-0.5312,2.8152,
3.199782,1.4766,-0.8140,-0.6280,4.6730,-6.2814,-3.4958,-1.9244,-0.5312,2.8152,
3.201631,1.4766,-0.8140,-0.6280,4.6730,-6.2814,-3.4958,-2.0323,-0.6107,2.8374,
3.207916,1.5020,-0.8178,-0.6315,4.6730,-6.2814,-3.4958,-2.0323,-0.6107,2.8374,
3.209095,1.5290,-0.8275,-0.6328,4.6730,-6.2814,-3.4958,-2.0323,-0.6107,2.8374,
3.209612,1.5290,-0.8275,-0.6328,5.6497,-5.9703,-3.0230,-2.0323,-0.6107,2.8374,
3.211399,1.5434,-0.8340,-0.6311,5.6497,-5.9703,-3.0230,-2.0323,-0.6107,2.8374,
3.215350,1.5557,-0.8393,-0.6163,5.6497,-5.9703,-3.0230,-2.0323,-0.6107,2.8374,
3.219496,1.5624,-0.8424,-0.6009,5.6497,-5.9703,-3.0230,-2.0323,-0.6107,2.8374,
3.226282,1.5719,-0.8433,-0.5819,5.6497,-5.9703,-3.0230,-2.0323,-0.6107,2.8374,
3.227686,1.5868,-0.8451,-0.5654,5.6497,-5.9703,-3.0230,-2.0323,-0.6107,2.8374,
3.228247,1.5868,-0.8451,-0.5654,6.5098,-5.8341,-2.3248,-2.0323,-0.6107,2.8374,
3.231578,1.6031,-0.8509,-0.5560,6.5098,-5.8341,-2.3248,-2.0323,-0.6107,2.8374,
3.235535,1.6188,-0.8568,-0.5539,6.5098,-5.8341,-2.3248,-2.0323,-0.6107,2.8374,
3.240097,1.6298,-0.8605,-0.5602,6.5098,-5.8341,-2.3248,-2.0323,-0.6107,2.8374,
3.245323,1.6368,-0.8628,-0.5748,6.5098,-5.8341,-2.3248,-2.0323,-0.6107,2.8374,
3.247162,1.6340,-0.8599,-0.5853,6.5098,-5.8341,-2.3248,-2.0323,-0.6107,2.8374,
3.247826,1.6340,-0.8599,-0.5853,7.3110,-5.7382,-2.0325,-2.0323,-0.6107,2.8374,
3.250947,1.6197,-0.8586,-0.5964,7.3110,-5.7382,-2.0325,-2.0323,-0.6107,2.8374,
3.256701,1.5998,-0.8580,-0.5965,7.3110,-5.7382,-2.0325,-2.0323,-0.6107,2.8374,
3.259310,1.5766,-0.8605,-0.5914,7.3110,-5.7382,-2.0325,-2.0323,-0.6107,2.8374,
3.265521,1.5474,-0.8677,-0.5813,7.3110,-5.7382,-2.0325,-2.0323,-0.6107,2.8374,
3.266923,1.5474,-0.8677,-0.5813,7.3110,-5.7382,-2.0325,-2.6025,-0.0237,1.8347,
3.267710,1.5106,-0.8793,-0.5682,7.3110,-5.7382,-2.0325,-2.6025,-0.0237,1.8347,
3.268341,1.5106,-0.8793,-0.5682,6.6054,-5.5503,-1.8822,-2.6025,-0.0237,1.8347,
3.271917,1.4720,-0.8845,-0.5613,6.6054,-5.5503,-1.8822,-2.6025,-0.0237,1.8347,
3.274901,1.4323,-0.8892,-0.5619,6.6054,-5.5503,-1.8822,-2.6025,-0.0237,1.8347,
3.278593,1.3986,-0.8978,-0.5691,6.6054,-5.5503,-1.8822,-2.6025,-0.0237,1.8347,
3.285578,1.3821,-0.9081,-0.5786,6.6054,-5.5503,-1.8822,-2.6025,-0.0237,1.8347,
3.287636,1.3764,-0.9204,-0.5920,6.6054,-5.5503,-1.8822,-2.6025,-0.0237,1.8347,
3.288172,1.3764,-0.9204,-0.5920,5.1145,-5.8257,-1.6832,-2.6025,-0.0237,1.8347,
3.290530,1.3773,-0.9294,-0.6005,5.1145,-5.8257,-1.6832,-2.6025,-0.0237,1.8347,
3.295558,1.3761,-0.9305,-0.6019,5.1145,-5.8257,-1.6832,-2.6025,-0.0237,1.8347,
3.298524,1.3700,-0.9310,-0.5954,5.1145,-5.8257,-1.6832,-2.6025,-0.0237,1.8347,
3.305455,1.3632,-0.9305,-0.5818,5.1145,-5.8257,-1.6832,-2.6025,-0.0237,1.8347,
3.306363,1.3436,-0.9299,-0.5540,5.1145,-5.8257,-1.6832,-2.6025,-0.0237,1.8347,
3.307450,1.3436,-0.9299,-0.5540,5.0280,-5.9880,-1.5481,-2.6025,-0.0237,1.8347,
3.310612,1.3335,-0.9332,-0.5292,5.0280,-5.9880,-1.5481,-2.6025,-0.0237,1.8347,
3.314679,1.3198,-0.9345,-0.4925,5.0280,-5.9880,-1.5481,-2.6025,-0.0237,1.8347,
3.318660,1.3091,-0.9351,-0.4634,5.0280,-5.9880,-1.5481,-2.6025,-0.0237,1.8347,
3.324979,1.2995,-0.9310,-0.4307,5.0280,-5.9880,-1.5481,-2.6025,-0.0237,1.8347,
3.326948,1.2939,-0.9260,-0.4015,5.0280,-5.9880,-1.5481,-2.6025,-0.0237,1.8347,
3.328523,1.2939,-0.9260,-0.4015,4.4760,-6.0169,0.1117,-2.6025,-0.0237,1.8347,
3.333280,1.2910,-0.9218,-0.3764,4.4760,-6.0169,0.1117,-2.6025,-0.0237,1.8347,
3.334120,1.2910,-0.9218,-0.3764,4.4760,-6.0169,0.1117,-4.0126,0.3726,1.3476,
3.334931,1.3045,-0.9230,-0.3466,4.4760,-6.0169,0.1117,-4.0126,0.3726,1.3476,
3.340132,1.3316,-0.9302,-0.3183,4.4760,-6.0169,0.1117,-4.0126,0.3726,1.3476,
3.344820,1.3578,-0.9348,-0.2990,4.4760,-6.0169,0.1117,-4.0126,0.3726,1.3476,
3.346511,1.3862,-0.9347,-0.2820,4.4760,-6.0169,0.1117,-4.0126,0.3726,1.3476,
3.349752,1.3862,-0.9347,-0.2820,5.1181,-6.1721,1.5940,-4.0126,0.3726,1.3476,
3.350624,1.4012,-0.9352,-0.2694,5.1181,-6.1721,1.5940,-4.0126,0.3726,1.3476,
3.356492,1.4150,-0.9331,-0.2598,5.1181,-6.1721,1.5940,-4.0126,0.3726,1.3476,
3.358360,1.4246,-0.9295,-0.2516,5.1181,-6.1721,1.5940,-4.0126,0.3726,1.3476,
3.364580,1.4329,-0.9256,-0.2517,5.1181,-6.1721,1.5940,-4.0126,0.3726,1.3476,
3.366128,1.4454,-0.9224,-0.2610,5.1181,-6.1721,1.5940,-4.0126,0.3726,1.3476,
3.366942,1.4454,-0.9224,-0.2610,5.9071,-6.2469,2.2615,-4.0126,0.3726,1.3476,
3.371408,1.4569,-0.9196,-0.2728,5.9071,-6.2469,2.2615,-4.0126,0.3726,1.3476,
3.374545,1.4680,-0.9107,-0.2841,5.9071,-6.2469,2.2615,-4.0126,0.3726,1.3476,
3.378197,1.4815,-0.9000,-0.2918,5.9071,-6.2469,2.2615,-4.0126,0.3726,1.3476,
3.384717,1.4928,-0.8889,-0.2974,5.9071,-6.2469,2.2615,-4.0126,0.3726,1.3476,
3.386698,1.5155,-0.8804,-0.3069,5.9071,-6.2469,2.2615,-4.0126,0.3726,1.3476,
3.388090,1.5155,-0.8804,-0.3069,6.5487,-6.0941,2.0181,-4.0126,0.3726,1.3476,
3.390252,1.5389,-0.8775,-0.3153,6.5487,-6.0941,2.0181,-4.0126,0.3726,1.3476,
3.394323,1.5691,-0.8680,-0.3203,6.5487,-6.0941,2.0181,-4.0126,0.3726,1.3476,
3.396053,1.5691,-0.8680,-0.3203,6.5487,-6.0941,2.0181,-4.1169,-0.0081,0.7955,
3.399579,1.5902,-0.8568,-0.3213,6.5487,-6.0941,2.0181,-4.1169,-0.0081,0.7955,
3.406452,1.6081,-0.8374,-0.3255,6.5487,-6.0941,2.0181,-4.1169,-0.0081,0.7955,
3.408915,1.6173,-0.8180,-0.3244,6.5487,-6.0941,2.0181,-4.1169,-0.0081,0.7955,
3.410261,1.6173,-0.8180,-0.3244,7.7301,-5.8258,1.9391,-4.1169,-0.0081,0.7955,
3.411026,1.6233,-0.8035,-0.3229,7.7301,-5.8258,1.9391,-4.1169,-0.0081,0.7955,
3.416694,1.6307,-0.7939,-0.3225,7.7301,-5.8258,1.9391,-4.1169,-0.0081,0.7955,
3.417799,1.6360,-0.7929,-0.3198,7.7301,-5.8258,1.9391,-4.1169,-0.0081,0.7955,
3.424153,1.6370,-0.7892,-0.3115,7.7301,-5.8258,1.9391,-4.1169,-0.0081,0.7955,
3.428078,1.6379,-0.7771,-0.2982,7.7301,-5.8258,1.9391,-4.1169,-0.0081,0.7955,
3.428839,1.6379,-0.7771,-0.2982,8.0489,-5.6775,2.2710,-4.1169,-0.0081,0.7955,
3.432300,1.6398,-0.7592,-0.2810,8.0489,-5.6775,2.2710,-4.1169,-0.0081,0.7955,
3.434862,1.6468,-0.7405,-0.2638,8.0489,-5.6775,2.2710,-4.1169,-0.0081,0.7955,
3.438171,1.6600,-0.7218,-0.2480,8.0489,-5.6775,2.2710,-4.1169,-0.0081,0.7955,
3.444774,1.6841,-0.7069,-0.2416,8.0489,-5.6775,2.2710,-4.1169,-0.0081,0.7955,
3.445858,1.7070,-0.6933,-0.2416,8.0489,-5.6775,2.2710,-4.1169,-0.0081,0.7955,
3.447649,1.7070,-0.6933,-0.2416,8.5006,-5.2669,3.0697,-4.1169,-0.0081,0.7955,
3.449825,1.7209,-0.6788,-0.2432,8.5006,-5.2669,3.0697,-4.1169,-0.0081,0.7955,
3.455947,1.7258,-0.6572,-0.2464,8.5006,-5.2669,3.0697,-4.1169,-0.0081,0.7955,
3.458121,1.7279,-0.6287,-0.2524,8.5006,-5.2669,3.0697,-4.1169,-0.0081,0.7955,
3.466192,1.7263,-0.6059,-0.2570,8.5006,-5.2669,3.0697,-4.1169,-0.0081,0.7955,
3.467786,1.7263,-0.6059,-0.2570,8.5006,-5.2669,3.0697,-4.0654,0.7223,-0.0244,
3.468783,1.7302,-0.5799,-0.2578,8.5006,-5.2669,3.0697,-4.0654,0.7223,-0.0244,
3.469644,1.7302,-0.5799,-0.2578,8.8630,-4.6867,2.9591,-4.0654,0.7223,-0.0244,
3.470476,1.7342,-0.5601,-0.2545,8.8630,-4.6867,2.9591,-4.0654,0.7223,-0.0244,
3.473615,1.7375,-0.5434,-0.2480,8.8630,-4.6867,2.9591,-4.0654,0.7223,-0.0244,
3.477759,1.7370,-0.5219,-0.2375,8.8630,-4.6867,2.9591,-4.0654,0.7223,-0.0244,
3.484094,1.7341,-0.5067,-0.2234,8.8630,-4.6867,2.9591,-4.0654,0.7223,-0.0244,
3.487114,1.7268,-0.4901,-0.1996,8.8630,-4.6867,2.9591,-4.0654,0.7223,-0.0244,
3.488399,1.7268,-0.4901,-0.1996,8.8662,-4.1492,3.2642,-4.0654,0.7223,-0.0244,
3.489790,1.7209,-0.4726,-0.1790,8.8662,-4.1492,3.2642,-4.0654,0.7223,-0.0244,
3.493575,1.7217,-0.4580,-0.1580,8.8662,-4.1492,3.2642,-4.0654,0.7223,-0.0244,
3.499746,1.7268,-0.4485,-0.1463,8.8662,-4.1492,3.2642,-4.0654,0.7223,-0.0244,
3.503629,1.7337,-0.4419,-0.1412,8.8662,-4.1492,3.2642,-4.0654,0.7223,-0.0244,
3.506014,1.7313,-0.4380,-0.1346,8.8662,-4.1492,3.2642,-4.0654,0.7223,-0.0244,
3.507791,1.7313,-0.4380,-0.1346,8.7888,-3.9775,4.0002,-4.0654,0.7223,-0.0244,
3.509610,1.7196,-0.4260,-0.1283,8.7888,-3.9775,4.0002,-4.0654,0.7223,-0.0244,
3.513760,1.7065,-0.3994,-0.1080,8.7888,-3.9775,4.0002,-4.0654,0.7223,-0.0244,
3.519727,1.7087,-0.3798,-0.0886,8.7888,-3.9775,4.0002,-4.0654,0.7223,-0.0244,
3.523919,1.7285,-0.3620,-0.0622,8.7888,-3.9775,4.0002,-4.0654,0.7223,-0.0244,
3.527265,1.7555,-0.3477,-0.0320,8.7888,-3.9775,4.0002,-4.0654,0.7223,-0.0244,
3.529012,1.7555,-0.3477,-0.0320,8.6724,-3.7121,4.6947,-4.0654,0.7223,-0.0244,
3.531969,1.7555,-0.3477,-0.0320,8.6724,-3.7121,4.6947,-3.3994,-0.1718,-0.7775,
3.534622,1.7767,-0.3292,-0.0025,8.6724,-3.7121,4.6947,-3.3994,-0.1718,-0.7775,
3.536154,1.7961,-0.3044,0.0288,8.6724,-3.7121,4.6947,-3.3994,-0.1718,-0.7775,
3.545330,1.8234,-0.2727,0.0689,8.6724,-3.7121,4.6947,-3.3994,-0.1718,-0.7775,
3.548417,1.8562,-0.2509,0.1000,8.6724,-3.7121,4.6947,-3.3994,-0.1718,-0.7775,
3.550465,1.8965,-0.2232,0.1283,8.6724,-3.7121,4.6947,-3.3994,-0.1718,-0.7775,
3.551776,1.8965,-0.2232,0.1283,9.9377,-3.1112,6.2411,-3.3994,-0.1718,-0.7775,
3.553976,1.9374,-0.2000,0.1500,9.9377,-3.1112,6.2411,-3.3994,-0.1718,-0.7775,
3.555597,1.9814,-0.1735,0.1713,9.9377,-3.1112,6.2411,-3.3994,-0.1718,-0.7775,
3.557722,2.0359,-0.1450,0.1930,9.9377,-3.1112,6.2411,-3.3994,-0.1718,-0.7775,
3.563580,2.0844,-0.1247,0.2118,9.9377,-3.1112,6.2411,-3.3994,-0.1718,-0.7775,
3.568572,2.1404,-0.1049,0.2287,9.9377,-3.1112,6.2411,-3.3994,-0.1718,-0.7775,
3.570099,2.1404,-0.1049,0.2287,12.2331,-2.3359,7.3294,-3.3994,-0.1718,-0.7775,
3.571007,2.1828,-0.0985,0.2442,12.2331,-2.3359,7.3294,-3.3994,-0.1718,-0.7775,
3.572871,2.2282,-0.0930,0.2637,12.2331,-2.3359,7.3294,-3.3994,-0.1718,-0.7775,
3.577162,2.2579,-0.0862,0.2830,12.2331,-2.3359,7.3294,-3.3994,-0.1718,-0.7775,
3.584141,2.2774,-0.0747,0.3037,12.2331,-2.3359,7.3294,-3.3994,-0.1718,-0.7775,
3.585560,2.2943,-0.0542,0.3321,12.2331,-2.3359,7.3294,-3.3994,-0.1718,-0.7775,
3.586440,2.2943,-0.0542,0.3321,14.1613,-2.2845,8.1902,-3.3994,-0.1718,-0.7775,
3.589030,2.2960,-0.0453,0.3446,14.1613,-2.2845,8.1902,-3.3994,-0.1718,-0.7775,
3.593888,2.2928,-0.0338,0.3549,14.1613,-2.2845,8.1902,-3.3994,-0.1718,-0.7775,
3.595185,2.2928,-0.0338,0.3549,14.1613,-2.2845,8.1902,-1.9750,-0.0304,-1.8130,
3.599136,2.2885,-0.0255,0.3569,14.1613,-2.2845,8.1902,-1.9750,-0.0304,-1.8130,
3.604216,2.2762,-0.0240,0.3458,14.1613,-2.2845,8.1902,-1.9750,-0.0304,-1.8130,
3.605339,2.2567,-0.0250,0.3290,14.1613,-2.2845,8.1902,-1.9750,-0.0304,-1.8130,
3.621071,2.2567,-0.0250,0.3290,14.2022,-2.2280,8.5291,-1.9750,-0.0304,-1.8130,
3.622619,2.2180,-0.0236,0.3069,14.2022,-2.2280,8.5291,-1.9750,-0.0304,-1.8130,
3.623573,2.1779,-0.0111,0.2844,14.2022,-2.2280,8.5291,-1.9750,-0.0304,-1.8130,
3.624368,2.1429,-0.0030,0.2582,14.2022,-2.2280,8.5291,-1.9750,-0.0304,-1.8130,
3.625184,2.1210,-0.0051,0.2161,14.2022,-2.2280,8.5291,-1.9750,-0.0304,-1.8130,
3.625904,2.1051,-0.0148,0.1717,14.2022,-2.2280,8.5291,-1.9750,-0.0304,-1.8130,
3.626633,2.1051,-0.0148,0.1717,12.7779,-2.5706,7.1804,-1.9750,-0.0304,-1.8130,
3.628429,2.0841,-0.0209,0.1307,12.7779,-2.5706,7.1804,-1.9750,-0.0304,-1.8130,
3.633904,2.0545,-0.0192,0.0907,12.7779,-2.5706,7.1804,-1.9750,-0.0304,-1.8130,
3.636096,2.0093,-0.0124,0.0509,12.7779,-2.5706,7.1804,-1.9750,-0.0304,-1.8130,
3.643069,1.9737,-0.0155,0.0201,12.7779,-2.5706,7.1804,-1.9750,-0.0304,-1.8130,
3.644062,1.9381,-0.0198,-0.0092,12.7779,-2.5706,7.1804,-1.9750,-0.0304,-1.8130,
3.644926,1.9381,-0.0198,-0.0092,11.4719,-3.1949,5.1951,-1.9750,-0.0304,-1.8130,
3.651091,1.9105,-0.0266,-0.0298,11.4719,-3.1949,5.1951,-1.9750,-0.0304,-1.8130,
3.652588,1.8818,-0.0355,-0.0494,11.4719,-3.1949,5.1951,-1.9750,-0.0304,-1.8130,
3.655917,1.8382,-0.0439,-0.0723,11.4719,-3.1949,5.1951,-1.9750,-0.0304,-1.8130,
3.658428,1.8382,-0.0439,-0.0723,11.4719,-3.1949,5.1951,-1.3025,0.1771,-3.1744,
3.662377,1.7990,-0.0504,-0.0873,11.4719,-3.1949,5.1951,-1.3025,0.1771,-3.1744,
3.665714,1.7655,-0.0689,-0.1008,11.4719,-3.1949,5.1951,-1.3025,0.1771,-3.1744,
3.667533,1.7655,-0.0689,-0.1008,9.9464,-4.0986,4.0868,-1.3025,0.1771,-3.1744,
3.668592,1.7376,-0.0787,-0.0996,9.9464,-4.0986,4.0868,-1.3025,0.1771,-3.1744,
3.671945,1.7006,-0.0801,-0.0932,9.9464,-4.0986,4.0868,-1.3025,0.1771,-3.1744,
3.676251,1.6635,-0.0742,-0.0873,9.9464,-4.0986,4.0868,-1.3025,0.1771,-3.1744,
3.682545,1.6194,-0.0715,-0.0754,9.9464,-4.0986,4.0868,-1.3025,0.1771,-3.1744,
3.684899,1.5840,-0.0781,-0.0642,9.9464,-4.0986,4.0868,-1.3025,0.1771,-3.1744,
3.685886,1.5840,-0.0781,-0.0642,8.4044,-4.8855,4.0528,-1.3025,0.1771,-3.1744,
3.688164,1.5411,-0.0976,-0.0452,8.4044,-4.8855,4.0528,-1.3025,0.1771,-3.1744,
3.692076,1.5037,-0.1145,-0.0218,8.4044,-4.8855,4.0528,-1.3025,0.1771,-3.1744,
3.696423,1.4617,-0.1201,0.0080,8.4044,-4.8855,4.0528,-1.3025,0.1771,-3.1744,
3.702509,1.4111,-0.1175,0.0525,8.4044,-4.8855,4.0528,-1.3025,0.1771,-3.1744,
3.704528,1.3642,-0.1127,0.0989,8.4044,-4.8855,4.0528,-1.3025,0.1771,-3.1744,
3.705496,1.3642,-0.1127,0.0989,6.5767,-6.0009,4.9926,-1.3025,0.1771,-3.1744,
3.707817,1.3322,-0.1171,0.1390,6.5767,-6.0009,4.9926,-1.3025,0.1771,-3.1744,
3.711571,1.3056,-0.1242,0.1760,6.5767,-6.0009,4.9926,-1.3025,0.1771,-3.1744,
3.715717,1.2778,-0.1326,0.2091,6.5767,-6.0009,4.9926,-1.3025,0.1771,-3.1744,
3.721989,1.2490,-0.1348,0.2318,6.5767,-6.0009,4.9926,-1.3025,0.1771,-3.1744,
3.723921,1.2100,-0.1351,0.2597,6.5767,-6.0009,4.9926,-1.3025,0.1771,-3.1744,
3.724968,1.2100,-0.1351,0.2597,6.5767,-6.0009,4.9926,-1.6670,1.2805,-3.6510,
3.725873,1.2100,-0.1351,0.2597,5.2420,-6.8027,6.3864,-1.6670,1.2805,-3.6510,
3.728154,1.1758,-0.1268,0.2905,5.2420,-6.8027,6.3864,-1.6670,1.2805,-3.6510,
3.731929,1.1438,-0.1208,0.3288,5.2420,-6.8027,6.3864,-1.6670,1.2805,-3.6510,
3.735470,1.1113,-0.1168,0.3784,5.2420,-6.8027,6.3864,-1.6670,1.2805,-3.6510,
3.741850,1.0834,-0.1154,0.4163,5.2420,-6.8027,6.3864,-1.6670,1.2805,-3.6510,
3.743173,1.0543,-0.1103,0.4578,5.2420,-6.8027,6.3864,-1.6670,1.2805,-3.6510,
3.743798,1.0543,-0.1103,0.4578,3.9152,-7.2443,7.8115,-1.6670,1.2805,-3.6510,
3.747960,1.0268,-0.1084,0.4834,3.9152,-7.2443,7.8115,-1.6670,1.2805,-3.6510,
3.751772,0.9941,-0.1061,0.5063,3.9152,-7.2443,7.8115,-1.6670,1.2805,-3.6510,
3.755351,0.9629,-0.1031,0.5220,3.9152,-7.2443,7.8115,-1.6670,1.2805,-3.6510,
3.761729,0.9306,-0.1013,0.5347,3.9152,-7.2443,7.8115,-1.6670,1.2805,-3.6510,
3.763682,0.8904,-0.0945,0.5435,3.9152,-7.2443,7.8115,-1.6670,1.2805,-3.6510,
3.764996,0.8904,-0.0945,0.5435,2.7853,-7.6710,8.6135,-1.6670,1.2805,-3.6510,
3.767136,0.8650,-0.0916,0.5432,2.7853,-7.6710,8.6135,-1.6670,1.2805,-3.6510,
3.771230,0.8325,-0.0895,0.5394,2.7853,-7.6710,8.6135,-1.6670,1.2805,-3.6510,
3.774817,0.8072,-0.0878,0.5279,2.7853,-7.6710,8.6135,-1.6670,1.2805,-3.6510,
3.783394,0.7779,-0.0836,0.5088,2.7853,-7.6710,8.6135,-1.6670,1.2805,-3.6510,
3.784699,0.7439,-0.0716,0.4847,2.7853,-7.6710,8.6135,-1.6670,1.2805,-3.6510,
3.785134,0.7439,-0.0716,0.4847,1.7229,-8.0120,8.0679,-1.6670,1.2805,-3.6510,
3.786776,0.7189,-0.0569,0.4604,1.7229,-8.0120,8.0679,-1.6670,1.2805,-3.6510,
3.788731,0.7189,-0.0569,0.4604,1.7229,-8.0120,8.0679,-0.2801,1.0753,-3.6255,
3.791071,0.6962,-0.0464,0.4332,1.7229,-8.0120,8.0679,-0.2801,1.0753,-3.6255,
3.795210,0.6774,-0.0428,0.4032,1.7229,-8.0120,8.0679,-0.2801,1.0753,-3.6255,
3.802155,0.6586,-0.0444,0.3708,1.7229,-8.0120,8.0679,-0.2801,1.0753,-3.6255,
3.804316,0.6301,-0.0438,0.3412,1.7229,-8.0120,8.0679,-0.2801,1.0753,-3.6255,
3.805455,0.6301,-0.0438,0.3412,1.0115,-8.0549,6.5273,-0.2801,1.0753,-3.6255,
3.806840,0.6015,-0.0373,0.3182,1.0115,-8.0549,6.5273,-0.2801,1.0753,-3.6255,
3.811086,0.5686,-0.0289,0.3018,1.0115,-8.0549,6.5273,-0.2801,1.0753,-3.6255,
3.815494,0.5355,-0.0192,0.2885,1.0115,-8.0549,6.5273,-0.2801,1.0753,-3.6255,
3.821489,0.5152,-0.0155,0.2806,1.0115,-8.0549,6.5273,-0.2801,1.0753,-3.6255,
3.822800,0.4927,-0.0128,0.2774,1.0115,-8.0549,6.5273,-0.2801,1.0753,-3.6255,
3.823855,0.4927,-0.0128,0.2774,0.0753,-8.1418,5.4740,-0.2801,1.0753,-3.6255,
3.827102,0.4700,-0.0129,0.2790,0.0753,-8.1418,5.4740,-0.2801,1.0753,-3.6255,
3.833199,0.4392,-0.0123,0.2821,0.0753,-8.1418,5.4740,-0.2801,1.0753,-3.6255,
3.835212,0.4115,-0.0139,0.2881,0.0753,-8.1418,5.4740,-0.2801,1.0753,-3.6255,
3.841268,0.3858,-0.0154,0.2996,0.0753,-8.1418,5.4740,-0.2801,1.0753,-3.6255,
3.842828,0.3561,-0.0199,0.3084,0.0753,-8.1418,5.4740,-0.2801,1.0753,-3.6255,
3.843951,0.3561,-0.0199,0.3084,-0.7557,-8.4642,5.4497,-0.2801,1.0753,-3.6255,
3.846943,0.3276,-0.0213,0.3159,-0.7557,-8.4642,5.4497,-0.2801,1.0753,-3.6255,
3.850992,0.3062,-0.0192,0.3181,-0.7557,-8.4642,5.4497,-0.2801,1.0753,-3.6255,
3.855120,0.2840,-0.0173,0.3200,-0.7557,-8.4642,5.4497,-0.2801,1.0753,-3.6255,
3.856430,0.2840,-0.0173,0.3200,-0.7557,-8.4642,5.4497,-0.1869,2.6641,-2.9287,
3.860896,0.2584,-0.0173,0.3270,-0.7557,-8.4642,5.4497,-0.1869,2.6641,-2.9287,
3.866000,0.2422,-0.0217,0.3317,-0.7557,-8.4642,5.4497,-0.1869,2.6641,-2.9287,
3.868067,0.2422,-0.0217,0.3317,-1.6155,-8.7475,5.4917,-0.1869,2.6641,-2.9287,
3.869291,0.2259,-0.0296,0.3411,-1.6155,-8.7475,5.4917,-0.1869,2.6641,-2.9287,
3.870696,0.2133,-0.0321,0.3501,-1.6155,-8.7475,5.4917,-0.1869,2.6641,-2.9287,
3.874808,0.2002,-0.0305,0.3601,-1.6155,-8.7475,5.4917,-0.1869,2.6641,-2.9287,
3.881994,0.1823,-0.0227,0.3683,-1.6155,-8.7475,5.4917,-0.1869,2.6641,-2.9287,
3.884408,0.1605,-0.0142,0.3753,-1.6155,-8.7475,5.4917,-0.1869,2.6641,-2.9287,
3.886183,0.1605,-0.0142,0.3753,-1.9762,-9.0490,5.6168,-0.1869,2.6641,-2.9287,
3.887492,0.1422,-0.0131,0.3830,-1.9762,-9.0490,5.6168,-0.1869,2.6641,-2.9287,
3.890705,0.1251,-0.0199,0.3939,-1.9762,-9.0490,5.6168,-0.1869,2.6641,-2.9287,
3.894401,0.1051,-0.0283,0.4067,-1.9762,-9.0490,5.6168,-0.1869,2.6641,-2.9287,
3.901366,0.0858,-0.0305,0.4194,-1.9762,-9.0490,5.6168,-0.1869,2.6641,-2.9287,
3.903415,0.0597,-0.0289,0.4366,-1.9762,-9.0490,5.6168,-0.1869,2.6641,-2.9287,
3.904482,0.0597,-0.0289,0.4366,-2.5906,-9.3177,5.8562,-0.1869,2.6641,-2.9287,
3.906324,0.0320,-0.0257,0.4552,-2.5906,-9.3177,5.8562,-0.1869,2.6641,-2.9287,
3.910342,0.0007,-0.0303,0.4833,-2.5906,-9.3177,5.8562,-0.1869,2.6641,-2.9287,
3.914864,-0.0210,-0.0345,0.5089,-2.5906,-9.3177,5.8562,-0.1869,2.6641,-2.9287,
3.921342,-0.0388,-0.0386,0.5294,-2.5906,-9.3177,5.8562,-0.1869,2.6641,-2.9287,
3.922969,-0.0388,-0.0386,0.5294,-2.5906,-9.3177,5.8562,0.3773,3.3883,-2.1942,
3.924167,-0.0577,-0.0396,0.5448,-2.5906,-9.3177,5.8562,0.3773,3.3883,-2.1942,
3.925547,-0.0577,-0.0396,0.5448,-3.4637,-9.5537,6.7023,0.3773,3.3883,-2.1942,
3.926864,-0.0741,-0.0310,0.5517,-3.4637,-9.5537,6.7023,0.3773,3.3883,-2.1942,
3.933602,-0.0907,-0.0211,0.5479,-3.4637,-9.5537,6.7023,0.3773,3.3883,-2.1942,
3.934959,-0.0972,-0.0201,0.5443,-3.4637,-9.5537,6.7023,0.3773,3.3883,-2.1942,
3.940946,-0.0992,-0.0322,0.5327,-3.4637,-9.5537,6.7023,0.3773,3.3883,-2.1942,
3.942242,-0.1007,-0.0500,0.5215,-3.4637,-9.5537,6.7023,0.3773,3.3883,-2.1942,
3.943385,-0.1007,-0.0500,0.5215,-3.7486,-9.6059,6.5859,0.3773,3.3883,-2.1942,
3.948371,-0.1031,-0.0548,0.5116,-3.7486,-9.6059,6.5859,0.3773,3.3883,-2.1942,
3.951795,-0.1027,-0.0609,0.4954,-3.7486,-9.6059,6.5859,0.3773,3.3883,-2.1942,
3.954240,-0.1028,-0.0614,0.4786,-3.7486,-9.6059,6.5859,0.3773,3.3883,-2.1942,
3.960334,-0.0995,-0.0619,0.4553,-3.7486,-9.6059,6.5859,0.3773,3.3883,-2.1942,
3.961874,-0.0978,-0.0666,0.4329,-3.7486,-9.6059,6.5859,0.3773,3.3883,-2.1942,
3.962617,-0.0978,-0.0666,0.4329,-3.4874,-9.9805,5.7784,0.3773,3.3883,-2.1942,
3.966416,-0.0933,-0.0733,0.4153,-3.4874,-9.9805,5.7784,0.3773,3.3883,-2.1942,
3.970002,-0.0887,-0.0862,0.4016,-3.4874,-9.9805,5.7784,0.3773,3.3883,-2.1942,
3.974183,-0.0780,-0.1005,0.3868,-3.4874,-9.9805,5.7784,0.3773,3.3883,-2.1942,
3.983991,-0.0720,-0.1073,0.3775,-3.4874,-9.9805,5.7784,0.3773,3.3883,-2.1942,
3.987723,-0.0697,-0.1046,0.3666,-3.4874,-9.9805,5.7784,0.3773,3.3883,-2.1942,
3.990222,-0.0697,-0.1046,0.3666,-3.0154,-10.4671,5.0702,0.3773,3.3883,-2.1942,
3.992847,-0.0615,-0.1003,0.3546,-3.0154,-10.4671,5.0702,0.3773,3.3883,-2.1942,
3.995548,-0.0615,-0.1003,0.3546,-3.0154,-10.4671,5.0702,1.7104,3.3534,-1.2203,
4.002356,-0.0542,-0.1012,0.3396,-3.0154,-10.4671,5.0702,1.7104,3.3534,-1.2203,
4.004382,-0.0467,-0.1099,0.3190,-3.0154,-10.4671,5.0702,1.7104,3.3534,-1.2203,
4.007771,-0.0434,-0.1201,0.2985,-3.0154,-10.4671,5.0702,1.7104,3.3534,-1.2203,
4.010259,-0.0401,-0.1285,0.2745,-3.0154,-10.4671,5.0702,1.7104,3.3534,-1.2203,
4.011493,-0.0401,-0.1285,0.2745,-2.5809,-10.6100,4.4269,1.7104,3.3534,-1.2203,
4.012470,-0.0363,-0.1279,0.2537,-2.5809,-10.6100,4.4269,1.7104,3.3534,-1.2203,
4.013503,-0.0341,-0.1234,0.2298,-2.5809,-10.6100,4.4269,1.7104,3.3534,-1.2203,
4.024155,-0.0314,-0.1219,0.2084,-2.5809,-10.6100,4.4269,1.7104,3.3534,-1.2203,
4.027542,-0.0281,-0.1267,0.1863,-2.5809,-10.6100,4.4269,1.7104,3.3534,-1.2203,
4.032141,-0.0227,-0.1417,0.1667,-2.5809,-10.6100,4.4269,1.7104,3.3534,-1.2203,
4.033874,-0.0227,-0.1417,0.1667,-2.3497,-10.6534,3.5298,1.7104,3.3534,-1.2203,
4.034664,-0.0151,-0.1575,0.1519,-2.3497,-10.6534,3.5298,1.7104,3.3534,-1.2203,
4.035286,-0.0033,-0.1742,0.1269,-2.3497,-10.6534,3.5298,1.7104,3.3534,-1.2203,
4.035882,0.0133,-0.1878,0.1012,-2.3497,-10.6534,3.5298,1.7104,3.3534,-1.2203,
4.039204,0.0346,-0.1918,0.0655,-2.3497,-10.6534,3.5298,1.7104,3.3534,-1.2203,
4.041479,0.0472,-0.1908,0.0305,-2.3497,-10.6534,3.5298,1.7104,3.3534,-1.2203,
4.042302,0.0472,-0.1908,0.0305,-1.7488,-11.2542,2.5940,1.7104,3.3534,-1.2203,
4.045406,0.0589,-0.1921,-0.0098,-1.7488,-11.2542,2.5940,1.7104,3.3534,-1.2203,
4.054189,0.0712,-0.1999,-0.0407,-1.7488,-11.2542,2.5940,1.7104,3.3534,-1.2203,
4.055934,0.0712,-0.1999,-0.0407,-1.7488,-11.2542,2.5940,2.5939,3.6120,-0.1726,
4.057138,0.0816,-0.2136,-0.0708,-1.7488,-11.2542,2.5940,2.5939,3.6120,-0.1726,
4.061663,0.0880,-0.2206,-0.1043,-1.7488,-11.2542,2.5940,2.5939,3.6120,-0.1726,
4.062619,0.0802,-0.2183,-0.1387,-1.7488,-11.2542,2.5940,2.5939,3.6120,-0.1726,
4.063383,0.0802,-0.2183,-0.1387,-1.3204,-11.4381,1.2554,2.5939,3.6120,-0.1726,
4.066671,0.0656,-0.2170,-0.1639,-1.3204,-11.4381,1.2554,2.5939,3.6120,-0.1726,
4.069035,0.0475,-0.2194,-0.1805,-1.3204,-11.4381,1.2554,2.5939,3.6120,-0.1726,
4.073794,0.0231,-0.2330,-0.1914,-1.3204,-11.4381,1.2554,2.5939,3.6120,-0.1726,
4.081222,0.0062,-0.2408,-0.1970,-1.3204,-11.4381,1.2554,2.5939,3.6120,-0.1726,
4.083067,-0.0142,-0.2480,-0.2054,-1.3204,-11.4381,1.2554,2.5939,3.6120,-0.1726,
4.084099,-0.0142,-0.2480,-0.2054,-2.2800,-11.5244,0.6549,2.5939,3.6120,-0.1726,
4.085253,-0.0323,-0.2484,-0.2120,-2.2800,-11.5244,0.6549,2.5939,3.6120,-0.1726,
4.100320,-0.0420,-0.2475,-0.2181,-2.2800,-11.5244,0.6549,2.5939,3.6120,-0.1726,
4.102199,-0.0405,-0.2599,-0.2255,-2.2800,-11.5244,0.6549,2.5939,3.6120,-0.1726,
4.103131,-0.0329,-0.2755,-0.2303,-2.2800,-11.5244,0.6549,2.5939,3.6120,-0.1726,
4.104159,-0.0155,-0.3025,-0.2422,-2.2800,-11.5244,0.6549,2.5939,3.6120,-0.1726,
4.105156,-0.0155,-0.3025,-0.2422,-2.8531,-11.7056,0.6503,2.5939,3.6120,-0.1726,
4.106066,-0.0092,-0.3145,-0.2539,-2.8531,-11.7056,0.6503,2.5939,3.6120,-0.1726,
4.108707,0.0023,-0.3327,-0.2731,-2.8531,-11.7056,0.6503,2.5939,3.6120,-0.1726,
4.114342,0.0101,-0.3460,-0.2961,-2.8531,-11.7056,0.6503,2.5939,3.6120,-0.1726,
4.120443,0.0235,-0.3591,-0.3238,-2.8531,-11.7056,0.6503,2.5939,3.6120,-0.1726,
4.121951,0.0235,-0.3591,-0.3238,-2.8531,-11.7056,0.6503,3.1159,2.5295,0.9134,
4.123192,0.0379,-0.3632,-0.3524,-2.8531,-11.7056,0.6503,3.1159,2.5295,0.9134,
4.124245,0.0379,-0.3632,-0.3524,-2.5795,-12.3291,0.0787,3.1159,2.5295,0.9134,
4.125311,0.0501,-0.3596,-0.3892,-2.5795,-12.3291,0.0787,3.1159,2.5295,0.9134,
4.130401,0.0596,-0.3455,-0.4431,-2.5795,-12.3291,0.0787,3.1159,2.5295,0.9134,
4.132588,0.0761,-0.3312,-0.5076,-2.5795,-12.3291,0.0787,3.1159,2.5295,0.9134,
4.139108,0.0937,-0.3197,-0.5665,-2.5795,-12.3291,0.0787,3.1159,2.5295,0.9134,
4.140599,0.1047,-0.3002,-0.6324,-2.5795,-12.3291,0.0787,3.1159,2.5295,0.9134,
4.142060,0.1047,-0.3002,-0.6324,-2.2344,-11.6820,-1.9122,3.1159,2.5295,0.9134,
4.146600,0.1093,-0.2850,-0.6739,-2.2344,-11.6820,-1.9122,3.1159,2.5295,0.9134,
4.150383,0.1151,-0.2722,-0.6916,-2.2344,-11.6820,-1.9122,3.1159,2.5295,0.9134,
4.152394,0.1312,-0.2614,-0.6961,-2.2344,-11.6820,-1.9122,3.1159,2.5295,0.9134,
4.159204,0.1539,-0.2471,-0.6931,-2.2344,-11.6820,-1.9122,3.1159,2.5295,0.9134,
4.160319,0.1964,-0.2313,-0.6894,-2.2344,-11.6820,-1.9122,3.1159,2.5295,0.9134,
4.161362,0.1964,-0.2313,-0.6894,-2.0691,-10.6331,-2.8052,3.1159,2.5295,0.9134,
4.164145,0.2504,-0.2295,-0.6928,-2.0691,-10.6331,-2.8052,3.1159,2.5295,0.9134,
4.168289,0.3191,-0.2414,-0.7009,-2.0691,-10.6331,-2.8052,3.1159,2.5295,0.9134,
4.172116,0.3988,-0.2666,-0.7100,-2.0691,-10.6331,-2.8052,3.1159,2.5295,0.9134,
4.181601,0.4573,-0.2834,-0.7144,-2.0691,-10.6331,-2.8052,3.1159,2.5295,0.9134,
4.183168,0.5080,-0.2874,-0.7207,-2.0691,-10.6331,-2.8052,3.1159,2.5295,0.9134,
4.184148,0.5080,-0.2874,-0.7207,0.3681,-10.6136,-2.7624,3.1159,2.5295,0.9134,
4.185227,0.5080,-0.2874,-0.7207,0.3681,-10.6136,-2.7624,2.8157,2.5419,2.2645,
4.185901,0.5509,-0.2755,-0.7260,0.3681,-10.6136,-2.7624,2.8157,2.5419,2.2645,
4.187881,0.5975,-0.2651,-0.7423,0.3681,-10.6136,-2.7624,2.8157,2.5419,2.2645,
4.192595,0.6380,-0.2643,-0.7631,0.3681,-10.6136,-2.7624,2.8157,2.5419,2.2645,
4.200231,0.6837,-0.2633,-0.7891,0.3681,-10.6136,-2.7624,2.8157,2.5419,2.2645,
4.202544,0.7119,-0.2575,-0.8134,0.3681,-10.6136,-2.7624,2.8157,2.5419,2.2645,
4.203770,0.7119,-0.2575,-0.8134,2.0474,-9.9954,-3.3133,2.8157,2.5419,2.2645,
4.204892,0.7300,-0.2423,-0.8352,2.0474,-9.9954,-3.3133,2.8157,2.5419,2.2645,
4.209027,0.7302,-0.2145,-0.8506,2.0474,-9.9954,-3.3133,2.8157,2.5419,2.2645,
4.221059,0.7241,-0.1900,-0.8562,2.0474,-9.9954,-3.3133,2.8157,2.5419,2.2645,
4.222619,0.7193,-0.1859,-0.8586,2.0474,-9.9954,-3.3133,2.8157,2.5419,2.2645,
4.223390,0.7281,-0.2099,-0.8571,2.0474,-9.9954,-3.3133,2.8157,2.5419,2.2645,
4.224108,0.7281,-0.2099,-0.8571,1.8262,-8.7366,-3.8156,2.8157,2.5419,2.2645,
4.224991,0.7348,-0.2407,-0.8624,1.8262,-8.7366,-3.8156,2.8157,2.5419,2.2645,
4.227745,0.7366,-0.2650,-0.8703,1.8262,-8.7366,-3.8156,2.8157,2.5419,2.2645,
4.232577,0.7257,-0.2755,-0.8772,1.8262,-8.7366,-3.8156,2.8157,2.5419,2.2645,
4.238328,0.7121,-0.2791,-0.8785,1.8262,-8.7366,-3.8156,2.8157,2.5419,2.2645,
4.240554,0.7149,-0.2883,-0.8754,1.8262,-8.7366,-3.8156,2.8157,2.5419,2.2645,
4.241873,0.7149,-0.2883,-0.8754,1.2118,-9.1388,-3.9027,2.8157,2.5419,2.2645,
4.243593,0.7361,-0.3067,-0.8740,1.2118,-9.1388,-3.9027,2.8157,2.5419,2.2645,
4.248495,0.7697,-0.3310,-0.8790,1.2118,-9.1388,-3.9027,2.8157,2.5419,2.2645,
4.250024,0.7697,-0.3310,-0.8790,1.2118,-9.1388,-3.9027,2.7482,1.7607,2.6201,
4.252151,0.8106,-0.3579,-0.8947,1.2118,-9.1388,-3.9027,2.7482,1.7607,2.6201,
4.259021,0.8354,-0.3601,-0.9176,1.2118,-9.1388,-3.9027,2.7482,1.7607,2.6201,
4.260109,0.8432,-0.3343,-0.9490,1.2118,-9.1388,-3.9027,2.7482,1.7607,2.6201,
4.260904,0.8432,-0.3343,-0.9490,1.9114,-9.3778,-4.2176,2.7482,1.7607,2.6201,
4.265324,0.8444,-0.3052,-0.9728,1.9114,-9.3778,-4.2176,2.7482,1.7607,2.6201,
4.268079,0.8483,-0.2927,-0.9883,1.9114,-9.3778,-4.2176,2.7482,1.7607,2.6201,
4.271566,0.8622,-0.3130,-0.9954,1.9114,-9.3778,-4.2176,2.7482,1.7607,2.6201,
4.279685,0.8841,-0.3394,-0.9994,1.9114,-9.3778,-4.2176,2.7482,1.7607,2.6201,
4.281154,0.9004,-0.3570,-1.0125,1.9114,-9.3778,-4.2176,2.7482,1.7607,2.6201,
4.281719,0.9004,-0.3570,-1.0125,1.9466,-8.5566,-4.9122,2.7482,1.7607,2.6201,
4.283356,0.9121,-0.3510,-1.0314,1.9466,-8.5566,-4.9122,2.7482,1.7607,2.6201,
4.287433,0.9375,-0.3380,-1.0617,1.9466,-8.5566,-4.9122,2.7482,1.7607,2.6201,
4.291737,0.9662,-0.3440,-1.0906,1.9466,-8.5566,-4.9122,2.7482,1.7607,2.6201,
4.300584,0.9982,-0.3738,-1.1196,1.9466,-8.5566,-4.9122,2.7482,1.7607,2.6201,
4.302449,1.0138,-0.4125,-1.1372,1.9466,-8.5566,-4.9122,2.7482,1.7607,2.6201,
4.303254,1.0138,-0.4125,-1.1372,2.7004,-8.2718,-5.9838,2.7482,1.7607,2.6201,
4.304011,1.0169,-0.4459,-1.1456,2.7004,-8.2718,-5.9838,2.7482,1.7607,2.6201,
4.307685,1.0137,-0.4660,-1.1524,2.7004,-8.2718,-5.9838,2.7482,1.7607,2.6201,
4.311143,1.0137,-0.4669,-1.1623,2.7004,-8.2718,-5.9838,2.7482,1.7607,2.6201,
4.315393,1.0137,-0.4669,-1.1623,2.7004,-8.2718,-5.9838,2.7038,1.3394,3.0008,
4.317487,1.0265,-0.4633,-1.1893,2.7004,-8.2718,-5.9838,2.7038,1.3394,3.0008,
4.318966,1.0500,-0.4758,-1.2217,2.7004,-8.2718,-5.9838,2.7038,1.3394,3.0008,
4.319681,1.0500,-0.4758,-1.2217,2.5859,-8.4042,-6.5979,2.7038,1.3394,3.0008,
4.323092,1.0700,-0.5008,-1.2496,2.5859,-8.4042,-6.5979,2.7038,1.3394,3.0008,
4.326681,1.0890,-0.5308,-1.2696,2.5859,-8.4042,-6.5979,2.7038,1.3394,3.0008,
4.331476,1.1030,-0.5537,-1.2820,2.5859,-8.4042,-6.5979,2.7038,1.3394,3.0008,
4.337889,1.1131,-0.5566,-1.2850,2.5859,-8.4042,-6.5979,2.7038,1.3394,3.0008,
4.338851,1.1331,-0.5527,-1.2856,2.5859,-8.4042,-6.5979,2.7038,1.3394,3.0008,
4.339659,1.1331,-0.5527,-1.2856,3.0811,-8.5818,-7.5562,2.7038,1.3394,3.0008,
4.342704,1.1527,-0.5478,-1.2827,3.0811,-8.5818,-7.5562,2.7038,1.3394,3.0008,
4.347374,1.1803,-0.5519,-1.2827,3.0811,-8.5818,-7.5562,2.7038,1.3394,3.0008,
4.350703,1.2112,-0.5639,-1.2797,3.0811,-8.5818,-7.5562,2.7038,1.3394,3.0008,
4.357115,1.2438,-0.5757,-1.2783,3.0811,-8.5818,-7.5562,2.7038,1.3394,3.0008,
4.359583,1.2722,-0.5806,-1.2785,3.0811,-8.5818,-7.5562,2.7038,1.3394,3.0008,
4.360172,1.2722,-0.5806,-1.2785,4.0888,-8.0831,-7.5500,2.7038,1.3394,3.0008,
4.363347,1.2981,-0.5768,-1.2905,4.0888,-8.0831,-7.5500,2.7038,1.3394,3.0008,
4.366852,1.3240,-0.5643,-1.3163,4.0888,-8.0831,-7.5500,2.7038,1.3394,3.0008,
4.370745,1.3290,-0.5514,-1.3530,4.0888,-8.0831,-7.5500,2.7038,1.3394,3.0008,
4.377384,1.3241,-0.5466,-1.3915,4.0888,-8.0831,-7.5500,2.7038,1.3394,3.0008,
4.380847,1.3142,-0.5570,-1.4370,4.0888,-8.0831,-7.5500,2.7038,1.3394,3.0008,
4.382474,1.3142,-0.5570,-1.4370,4.0888,-8.0831,-7.5500,1.9542,0.7640,2.8547,
4.383381,1.3142,-0.5570,-1.4370,4.6579,-7.0323,-8.6893,1.9542,0.7640,2.8547,
4.384180,1.3053,-0.5724,-1.4633,4.6579,-7.0323,-8.6893,1.9542,0.7640,2.8547,
4.386464,1.2859,-0.5986,-1.4902,4.6579,-7.0323,-8.6893,1.9542,0.7640,2.8547,
4.390387,1.2633,-0.6175,-1.5016,4.6579,-7.0323,-8.6893,1.9542,0.7640,2.8547,
4.397646,1.2411,-0.6309,-1.5053,4.6579,-7.0323,-8.6893,1.9542,0.7640,2.8547,
4.398973,1.2296,-0.6344,-1.5022,4.6579,-7.0323,-8.6893,1.9542,0.7640,2.8547,
4.399826,1.2296,-0.6344,-1.5022,3.6943,-7.1668,-9.8745,1.9542,0.7640,2.8547,
4.402695,1.2318,-0.6335,-1.5020,3.6943,-7.1668,-9.8745,1.9542,0.7640,2.8547,
4.406502,1.2392,-0.6312,-1.5057,3.6943,-7.1668,-9.8745,1.9542,0.7640,2.8547,
4.410928,1.2528,-0.6326,-1.5136,3.6943,-7.1668,-9.8745,1.9542,0.7640,2.8547,
4.418042,1.2679,-0.6313,-1.5271,3.6943,-7.1668,-9.8745,1.9542,0.7640,2.8547,
4.420495,1.2865,-0.6397,-1.5334,3.6943,-7.1668,-9.8745,1.9542,0.7640,2.8547,
4.422374,1.2865,-0.6397,-1.5334,3.8479,-6.5347,-10.1965,1.9542,0.7640,2.8547,
4.425078,1.2959,-0.6466,-1.5325,3.8479,-6.5347,-10.1965,1.9542,0.7640,2.8547,
4.427807,1.2980,-0.6478,-1.5272,3.8479,-6.5347,-10.1965,1.9542,0.7640,2.8547,
4.439850,1.2935,-0.6418,-1.5201,3.8479,-6.5347,-10.1965,1.9542,0.7640,2.8547,
4.442740,1.2882,-0.6426,-1.5144,3.8479,-6.5347,-10.1965,1.9542,0.7640,2.8547,
4.443849,1.2879,-0.6517,-1.5028,3.8479,-6.5347,-10.1965,1.9542,0.7640,2.8547,
4.444942,1.2879,-0.6517,-1.5028,3.9976,-6.0295,-10.1650,1.9542,0.7640,2.8547,
4.445949,1.2914,-0.6667,-1.4894,3.9976,-6.0295,-10.1650,1.9542,0.7640,2.8547,
4.446966,1.2914,-0.6667,-1.4894,3.9976,-6.0295,-10.1650,0.3556,0.4146,2.8558,
4.447903,1.2972,-0.6837,-1.4710,3.9976,-6.0295,-10.1650,0.3556,0.4146,2.8558,
4.451849,1.3019,-0.6996,-1.4556,3.9976,-6.0295,-10.1650,0.3556,0.4146,2.8558,
4.456943,1.3049,-0.7079,-1.4322,3.9976,-6.0295,-10.1650,0.3556,0.4146,2.8558,
4.459146,1.3120,-0.7071,-1.4016,3.9976,-6.0295,-10.1650,0.3556,0.4146,2.8558,
4.460031,1.3120,-0.7071,-1.4016,4.1498,-6.1175,-9.4344,0.3556,0.4146,2.8558,
4.468262,1.3165,-0.7097,-1.3752,4.1498,-6.1175,-9.4344,0.3556,0.4146,2.8558,
4.469651,1.3177,-0.7174,-1.3422,4.1498,-6.1175,-9.4344,0.3556,0.4146,2.8558,
4.470312,1.3197,-0.7300,-1.3120,4.1498,-6.1175,-9.4344,0.3556,0.4146,2.8558,
4.476443,1.3153,-0.7507,-1.2773,4.1498,-6.1175,-9.4344,0.3556,0.4146,2.8558,
4.479432,1.3067,-0.7593,-1.2446,4.1498,-6.1175,-9.4344,0.3556,0.4146,2.8558,
4.480968,1.3067,-0.7593,-1.2446,4.2662,-6.0580,-8.0011,0.3556,0.4146,2.8558,
4.482214,1.2913,-0.7630,-1.2040,4.2662,-6.0580,-8.0011,0.3556,0.4146,2.8558,
4.485724,1.2770,-0.7679,-1.1682,4.2662,-6.0580,-8.0011,0.3556,0.4146,2.8558,
4.489758,1.2656,-0.7777,-1.1361,4.2662,-6.0580,-8.0011,0.3556,0.4146,2.8558,
4.498425,1.2470,-0.7991,-1.1015,4.2662,-6.0580,-8.0011,0.3556,0.4146,2.8558,
4.501459,1.2470,-0.7991,-1.1015,3.6366,-6.0303,-6.3914,0.3556,0.4146,2.8558,
4.502923,1.2228,-0.8251,-1.0677,3.6366,-6.0303,-6.3914,0.3556,0.4146,2.8558,
4.504199,1.2008,-0.8400,-1.0365,3.6366,-6.0303,-6.3914,0.3556,0.4146,2.8558,
4.506114,1.1790,-0.8457,-1.0044,3.6366,-6.0303,-6.3914,0.3556,0.4146,2.8558,
4.509966,1.1562,-0.8471,-0.9674,3.6366,-6.0303,-6.3914,0.3556,0.4146,2.8558,
4.511084,1.1562,-0.8471,-0.9674,3.6366,-6.0303,-6.3914,-1.2209,0.9394,2.6580,
4.516355,1.1426,-0.8503,-0.9373,3.6366,-6.0303,-6.3914,-1.2209,0.9394,2.6580,
4.518075,1.1314,-0.8609,-0.9040,3.6366,-6.0303,-6.3914,-1.2209,0.9394,2.6580,
4.518784,1.1314,-0.8609,-0.9040,2.6376,-6.1696,-4.8907,-1.2209,0.9394,2.6580,
4.521683,1.1211,-0.8734,-0.8805,2.6376,-6.1696,-4.8907,-1.2209,0.9394,2.6580,
4.525669,1.1113,-0.8881,-0.8590,2.6376,-6.1696,-4.8907,-1.2209,0.9394,2.6580,
4.529614,1.0979,-0.9051,-0.8342,2.6376,-6.1696,-4.8907,-1.2209,0.9394,2.6580,
4.535764,1.0864,-0.9115,-0.8161,2.6376,-6.1696,-4.8907,-1.2209,0.9394,2.6580,
4.537321,1.0781,-0.9173,-0.7997,2.6376,-6.1696,-4.8907,-1.2209,0.9394,2.6580,
4.538024,1.0781,-0.9173,-0.7997,2.1284,-6.4150,-3.7980,-1.2209,0.9394,2.6580,
4.541565,1.0739,-0.9186,-0.7891,2.1284,-6.4150,-3.7980,-1.2209,0.9394,2.6580,
4.546189,1.0739,-0.9215,-0.7742,2.1284,-6.4150,-3.7980,-1.2209,0.9394,2.6580,
4.549360,1.0808,-0.9258,-0.7645,2.1284,-6.4150,-3.7980,-1.2209,0.9394,2.6580,
4.555823,1.0899,-0.9392,-0.7552,2.1284,-6.4150,-3.7980,-1.2209,0.9394,2.6580,
4.558535,1.0987,-0.9543,-0.7436,2.1284,-6.4150,-3.7980,-1.2209,0.9394,2.6580,
4.559736,1.0987,-0.9543,-0.7436,2.2453,-6.3755,-3.2331,-1.2209,0.9394,2.6580,
4.566077,1.1032,-0.9650,-0.7296,2.2453,-6.3755,-3.2331,-1.2209,0.9394,2.6580,
4.568339,1.1076,-0.9767,-0.7117,2.2453,-6.3755,-3.2331,-1.2209,0.9394,2.6580,
4.570070,1.1059,-0.9757,-0.6990,2.2453,-6.3755,-3.2331,-1.2209,0.9394,2.6580,
4.575697,1.1012,-0.9694,-0.6823,2.2453,-6.3755,-3.2331,-1.2209,0.9394,2.6580,
4.576803,1.1012,-0.9694,-0.6823,2.2453,-6.3755,-3.2331,-2.1375,0.6553,2.6821,
4.577636,1.1013,-0.9675,-0.6670,2.2453,-6.3755,-3.2331,-2.1375,0.6553,2.6821,
4.581535,1.1013,-0.9675,-0.6670,2.4694,-6.3469,-2.5250,-2.1375,0.6553,2.6821,
4.583346,1.1091,-0.9748,-0.6513,2.4694,-6.3469,-2.5250,-2.1375,0.6553,2.6821,
4.585243,1.1235,-0.9862,-0.6380,2.4694,-6.3469,-2.5250,-2.1375,0.6553,2.6821,
4.589378,1.1402,-0.9957,-0.6241,2.4694,-6.3469,-2.5250,-2.1375,0.6553,2.6821,
4.597466,1.1510,-1.0008,-0.6220,2.4694,-6.3469,-2.5250,-2.1375,0.6553,2.6821,
4.599247,1.1677,-1.0034,-0.6249,2.4694,-6.3469,-2.5250,-2.1375,0.6553,2.6821,
4.600122,1.1677,-1.0034,-0.6249,3.0889,-6.3848,-1.8984,-2.1375,0.6553,2.6821,
4.601028,1.1826,-1.0052,-0.6329,3.0889,-6.3848,-1.8984,-2.1375,0.6553,2.6821,
4.605172,1.1971,-1.0079,-0.6433,3.0889,-6.3848,-1.8984,-2.1375,0.6553,2.6821,
4.609190,1.2152,-1.0155,-0.6561,3.0889,-6.3848,-1.8984,-2.1375,0.6553,2.6821,
4.615461,1.2258,-1.0229,-0.6631,3.0889,-6.3848,-1.8984,-2.1375,0.6553,2.6821,
4.618047,1.2353,-1.0325,-0.6666,3.0889,-6.3848,-1.8984,-2.1375,0.6553,2.6821,
4.618942,1.2353,-1.0325,-0.6666,3.9671,-6.3440,-2.2338,-2.1375,0.6553,2.6821,
4.621054,1.2410,-1.0386,-0.6680,3.9671,-6.3440,-2.2338,-2.1375,0.6553,2.6821,
4.625248,1.2453,-1.0395,-0.6710,3.9671,-6.3440,-2.2338,-2.1375,0.6553,2.6821,
4.630557,1.2519,-1.0372,-0.6694,3.9671,-6.3440,-2.2338,-2.1375,0.6553,2.6821,
4.635712,1.2606,-1.0331,-0.6689,3.9671,-6.3440,-2.2338,-2.1375,0.6553,2.6821,
4.637821,1.2866,-1.0335,-0.6656,3.9671,-6.3440,-2.2338,-2.1375,0.6553,2.6821,
4.638918,1.2866,-1.0335,-0.6656,4.4652,-6.2466,-2.1589,-2.1375,0.6553,2.6821,
4.641376,1.3096,-1.0366,-0.6594,4.4652,-6.2466,-2.1589,-2.1375,0.6553,2.6821,
4.642327,1.3096,-1.0366,-0.6594,4.4652,-6.2466,-2.1589,-2.8841,0.4362,2.4591,
4.646772,1.3309,-1.0404,-0.6585,4.4652,-6.2466,-2.1589,-2.8841,0.4362,2.4591,
4.649080,1.3506,-1.0416,-0.6554,4.4652,-6.2466,-2.1589,-2.8841,0.4362,2.4591,
4.654694,1.3595,-1.0440,-0.6509,4.4652,-6.2466,-2.1589,-2.8841,0.4362,2.4591,
4.656408,1.3628,-1.0393,-0.6477,4.4652,-6.2466,-2.1589,-2.8841,0.4362,2.4591,
4.657291,1.3628,-1.0393,-0.6477,5.6070,-6.2003,-1.8383,-2.8841,0.4362,2.4591,
4.662302,1.3692,-1.0417,-0.6449,5.6070,-6.2003,-1.8383,-2.8841,0.4362,2.4591,
4.664461,1.3747,-1.0478,-0.6452,5.6070,-6.2003,-1.8383,-2.8841,0.4362,2.4591,
4.669379,1.3896,-1.0552,-0.6464,5.6070,-6.2003,-1.8383,-2.8841,0.4362,2.4591,
4.675057,1.4196,-1.0610,-0.6526,5.6070,-6.2003,-1.8383,-2.8841,0.4362,2.4591,
4.676294,1.4509,-1.0632,-0.6661,5.6070,-6.2003,-1.8383,-2.8841,0.4362,2.4591,
4.677231,1.4509,-1.0632,-0.6661,6.3530,-6.2788,-1.6500,-2.8841,0.4362,2.4591,
4.680949,1.4738,-1.0572,-0.6818,6.3530,-6.2788,-1.6500,-2.8841,0.4362,2.4591,
4.684423,1.4887,-1.0513,-0.7012,6.3530,-6.2788,-1.6500,-2.8841,0.4362,2.4591,
4.688577,1.4986,-1.0434,-0.7233,6.3530,-6.2788,-1.6500,-2.8841,0.4362,2.4591,
4.696258,1.5025,-1.0353,-0.7351,6.3530,-6.2788,-1.6500,-2.8841,0.4362,2.4591,
4.698068,1.5144,-1.0289,-0.7422,6.3530,-6.2788,-1.6500,-2.8841,0.4362,2.4591,
4.698928,1.5144,-1.0289,-0.7422,7.3148,-6.0195,-2.2479,-2.8841,0.4362,2.4591,
4.700511,1.5252,-1.0234,-0.7403,7.3148,-6.0195,-2.2479,-2.8841,0.4362,2.4591,
4.704233,1.5334,-1.0172,-0.7419,7.3148,-6.0195,-2.2479,-2.8841,0.4362,2.4591,
4.706689,1.5334,-1.0172,-0.7419,7.3148,-6.0195,-2.2479,-3.8395,0.4192,1.6796,
4.708435,1.5295,-1.0125,-0.7402,7.3148,-6.0195,-2.2479,-3.8395,0.4192,1.6796,
4.714683,1.5242,-1.0106,-0.7327,7.3148,-6.0195,-2.2479,-3.8395,0.4192,1.6796,
4.716390,1.5185,-1.0130,-0.7238,7.3148,-6.0195,-2.2479,-3.8395,0.4192,1.6796,
4.717324,1.5185,-1.0130,-0.7238,7.6520,-5.8525,-1.9798,-3.8395,0.4192,1.6796,
4.720134,1.5125,-1.0149,-0.7122,7.6520,-5.8525,-1.9798,-3.8395,0.4192,1.6796,
4.724410,1.5040,-1.0186,-0.6968,7.6520,-5.8525,-1.9798,-3.8395,0.4192,1.6796,
4.729190,1.4982,-1.0200,-0.6825,7.6520,-5.8525,-1.9798,-3.8395,0.4192,1.6796,
4.734877,1.4853,-1.0204,-0.6685,7.6520,-5.8525,-1.9798,-3.8395,0.4192,1.6796,
4.735795,1.4808,-1.0256,-0.6549,7.6520,-5.8525,-1.9798,-3.8395,0.4192,1.6796,
4.737323,1.4808,-1.0256,-0.6549,7.3584,-6.1371,-1.0929,-3.8395,0.4192,1.6796,
4.740662,1.4809,-1.0335,-0.6488,7.3584,-6.1371,-1.0929,-3.8395,0.4192,1.6796,
4.746375,1.4857,-1.0369,-0.6376,7.3584,-6.1371,-1.0929,-3.8395,0.4192,1.6796,
4.749753,1.4954,-1.0338,-0.6298,7.3584,-6.1371,-1.0929,-3.8395,0.4192,1.6796,
4.754523,1.5092,-1.0202,-0.6201,7.3584,-6.1371,-1.0929,-3.8395,0.4192,1.6796,
4.756082,1.5252,-1.0051,-0.6116,7.3584,-6.1371,-1.0929,-3.8395,0.4192,1.6796,
4.757763,1.5252,-1.0051,-0.6116,7.6532,-6.3992,-0.3646,-3.8395,0.4192,1.6796,
4.760210,1.5458,-0.9884,-0.6019,7.6532,-6.3992,-0.3646,-3.8395,0.4192,1.6796,
4.763852,1.5680,-0.9730,-0.5903,7.6532,-6.3992,-0.3646,-3.8395,0.4192,1.6796,
4.767800,1.5914,-0.9532,-0.5758,7.6532,-6.3992,-0.3646,-3.8395,0.4192,1.6796,
4.774381,1.6152,-0.9337,-0.5670,7.6532,-6.3992,-0.3646,-3.8395,0.4192,1.6796,
4.775555,1.6152,-0.9337,-0.5670,7.6532,-6.3992,-0.3646,-4.5326,0.5208,1.1025,
4.777472,1.6418,-0.9158,-0.5601,7.6532,-6.3992,-0.3646,-4.5326,0.5208,1.1025,
4.778310,1.6418,-0.9158,-0.5601,8.7293,-5.8868,0.3939,-4.5326,0.5208,1.1025,
4.781609,1.6687,-0.9057,-0.5579,8.7293,-5.8868,0.3939,-4.5326,0.5208,1.1025,
4.783727,1.6912,-0.8956,-0.5539,8.7293,-5.8868,0.3939,-4.5326,0.5208,1.1025,
4.788012,1.7127,-0.8858,-0.5526,8.7293,-5.8868,0.3939,-4.5326,0.5208,1.1025,
4.796197,1.7289,-0.8765,-0.5486,8.7293,-5.8868,0.3939,-4.5326,0.5208,1.1025,
4.798030,1.7463,-0.8599,-0.5447,8.7293,-5.8868,0.3939,-4.5326,0.5208,1.1025,
4.798815,1.7463,-0.8599,-0.5447,9.8568,-5.7167,0.7881,-4.5326,0.5208,1.1025,
4.799822,1.7643,-0.8417,-0.5402,9.8568,-5.7167,0.7881,-4.5326,0.5208,1.1025,
4.803887,1.7887,-0.8112,-0.5366,9.8568,-5.7167,0.7881,-4.5326,0.5208,1.1025,
4.807709,1.8095,-0.7855,-0.5379,9.8568,-5.7167,0.7881,-4.5326,0.5208,1.1025,
4.814319,1.8342,-0.7635,-0.5417,9.8568,-5.7167,0.7881,-4.5326,0.5208,1.1025,
4.815849,1.8639,-0.7514,-0.5504,9.8568,-5.7167,0.7881,-4.5326,0.5208,1.1025,
4.816774,1.8639,-0.7514,-0.5504,10.8721,-5.0543,1.0193,-4.5326,0.5208,1.1025,
4.819813,1.8745,-0.7423,-0.5575,10.8721,-5.0543,1.0193,-4.5326,0.5208,1.1025,
4.824009,1.8838,-0.7243,-0.5733,10.8721,-5.0543,1.0193,-4.5326,0.5208,1.1025,
4.829273,1.8796,-0.7001,-0.5886,10.8721,-5.0543,1.0193,-4.5326,0.5208,1.1025,
4.833956,1.8662,-0.6699,-0.6049,10.8721,-5.0543,1.0193,-4.5326,0.5208,1.1025,
4.836006,1.8481,-0.6460,-0.6192,10.8721,-5.0543,1.0193,-4.5326,0.5208,1.1025,
4.837733,1.8481,-0.6460,-0.6192,11.1455,-4.6001,0.5264,-4.5326,0.5208,1.1025,
4.838942,1.8481,-0.6460,-0.6192,11.1455,-4.6001,0.5264,-4.4647,0.9613,0.0533,
4.840184,1.8216,-0.6235,-0.6338,11.1455,-4.6001,0.5264,-4.4647,0.9613,0.0533,
4.845562,1.7987,-0.6119,-0.6422,11.1455,-4.6001,0.5264,-4.4647,0.9613,0.0533,
4.847522,1.7802,-0.6056,-0.6429,11.1455,-4.6001,0.5264,-4.4647,0.9613,0.0533,
4.853577,1.7680,-0.5996,-0.6253,11.1455,-4.6001,0.5264,-4.4647,0.9613,0.0533,
4.855137,1.7673,-0.5957,-0.5949,11.1455,-4.6001,0.5264,-4.4647,0.9613,0.0533,
4.856001,1.7673,-0.5957,-0.5949,10.0798,-4.4891,0.3521,-4.4647,0.9613,0.0533,
4.859676,1.7659,-0.5793,-0.5575,10.0798,-4.4891,0.3521,-4.4647,0.9613,0.0533,
4.864308,1.7670,-0.5506,-0.5206,10.0798,-4.4891,0.3521,-4.4647,0.9613,0.0533,
4.867331,1.7783,-0.5191,-0.4820,10.0798,-4.4891,0.3521,-4.4647,0.9613,0.0533,
4.873694,1.8019,-0.4962,-0.4527,10.0798,-4.4891,0.3521,-4.4647,0.9613,0.0533,
4.875239,1.8376,-0.4765,-0.4216,10.0798,-4.4891,0.3521,-4.4647,0.9613,0.0533,
4.877143,1.8376,-0.4765,-0.4216,10.2538,-4.0878,1.9701,-4.4647,0.9613,0.0533,
4.881240,1.8710,-0.4569,-0.4012,10.2538,-4.0878,1.9701,-4.4647,0.9613,0.0533,
4.883552,1.9000,-0.4304,-0.3835,10.2538,-4.0878,1.9701,-4.4647,0.9613,0.0533,
4.887081,1.9336,-0.3803,-0.3656,10.2538,-4.0878,1.9701,-4.4647,0.9613,0.0533,
4.896461,1.9584,-0.3417,-0.3534,10.2538,-4.0878,1.9701,-4.4647,0.9613,0.0533,
4.897812,1.9921,-0.3127,-0.3461,10.2538,-4.0878,1.9701,-4.4647,0.9613,0.0533,
