
time,gFx,gFy,gFz,ax,ay,az,wx,wy,wz,
0.029409,0.0000,0.0000,0.0000,0.3202,-0.0687,0.4563,0.0000,0.0000,0.0000,
0.036778,0.0870,0.3055,0.9758,0.3202,-0.0687,0.4563,0.0000,0.0000,0.0000,
0.037436,0.0870,0.3055,0.9758,0.3202,-0.0687,0.4563,-0.1328,0.0154,-0.0760,
0.052360,0.0870,0.3055,0.9758,0.0053,0.0209,0.0659,-0.1328,0.0154,-0.0760,
0.072039,0.0870,0.3055,0.9758,-0.1142,-0.0425,-0.2434,-0.1328,0.0154,-0.0760,
0.091910,0.0870,0.3055,0.9758,-0.0613,0.0225,-0.3076,-0.1328,0.0154,-0.0760,
0.101932,0.0690,0.3069,0.9308,-0.0613,0.0225,-0.3076,-0.1328,0.0154,-0.0760,
0.102390,0.0690,0.3069,0.9308,-0.0613,0.0225,-0.3076,-0.1795,0.0259,-0.0298,
0.111908,0.0690,0.3069,0.9308,0.1093,-0.0113,-0.3746,-0.1795,0.0259,-0.0298,
0.131940,0.0690,0.3069,0.9308,-0.0789,-0.0110,-0.4334,-0.1795,0.0259,-0.0298,
0.154753,0.0690,0.3069,0.9308,-0.0396,-0.1638,-0.5258,-0.1795,0.0259,-0.0298,
0.169886,0.0068,0.3191,0.9343,-0.0396,-0.1638,-0.5258,-0.1795,0.0259,-0.0298,
0.170593,0.0068,0.3191,0.9343,-0.0396,-0.1638,-0.5258,-0.4036,0.1498,0.0814,
0.172658,0.0068,0.3191,0.9343,-0.6523,0.3457,-0.2307,-0.4036,0.1498,0.0814,
0.191497,0.0068,0.3191,0.9343,-0.3412,0.2883,0.0628,-0.4036,0.1498,0.0814,
0.211590,0.0068,0.3191,0.9343,-0.2537,0.6479,0.9986,-0.4036,0.1498,0.0814,
0.230900,0.0068,0.3191,0.9343,0.1031,0.2075,1.7474,-0.4036,0.1498,0.0814,
0.233017,0.0734,0.2805,1.1551,0.1031,0.2075,1.7474,-0.4036,0.1498,0.0814,
0.233458,0.0734,0.2805,1.1551,0.1031,0.2075,1.7474,0.2976,0.3676,0.1446,
0.250896,0.0734,0.2805,1.1551,0.3688,0.0890,1.6817,0.2976,0.3676,0.1446,
0.270945,0.0734,0.2805,1.1551,0.1662,0.0186,0.6019,0.2976,0.3676,0.1446,
0.290877,0.0734,0.2805,1.1551,0.0795,-0.1450,-0.5667,0.2976,0.3676,0.1446,
0.298581,0.0414,0.3085,0.8513,0.0795,-0.1450,-0.5667,0.2976,0.3676,0.1446,
0.299250,0.0414,0.3085,0.8513,0.0795,-0.1450,-0.5667,0.8022,0.0805,0.0360,
0.310251,0.0414,0.3085,0.8513,0.0930,0.1010,-1.0341,0.8022,0.0805,0.0360,
0.331084,0.0414,0.3085,0.8513,-0.3673,0.1128,-1.2687,0.8022,0.0805,0.0360,
0.350160,0.0414,0.3085,0.8513,0.1029,-0.0738,-1.1817,0.8022,0.0805,0.0360,
0.363809,0.0825,0.3429,0.7946,0.1029,-0.0738,-1.1817,0.8022,0.0805,0.0360,
0.364789,0.0825,0.3429,0.7946,0.1029,-0.0738,-1.1817,0.1870,-0.2011,-0.2072,
0.370973,0.0825,0.3429,0.7946,0.3350,-0.1017,-1.4691,0.1870,-0.2011,-0.2072,
0.390606,0.0825,0.3429,0.7946,0.1985,-0.2298,-2.1979,0.1870,-0.2011,-0.2072,
0.409530,0.0825,0.3429,0.7946,-0.6912,0.0661,-2.1305,0.1870,-0.2011,-0.2072,
0.429371,-0.0493,0.3263,0.7438,-0.6912,0.0661,-2.1305,0.1870,-0.2011,-0.2072,
0.430328,-0.0493,0.3263,0.7438,-0.6912,0.0661,-2.1305,-0.5487,-0.9143,-0.3528,
0.430975,-0.0493,0.3263,0.7438,-1.0874,-0.2044,-1.9497,-0.5487,-0.9143,-0.3528,
0.449440,-0.0493,0.3263,0.7438,-1.4711,-0.2938,-1.4383,-0.5487,-0.9143,-0.3528,
0.469457,-0.0493,0.3263,0.7438,-1.3479,-0.6248,-0.6332,-0.5487,-0.9143,-0.3528,
0.489260,-0.0493,0.3263,0.7438,-0.1767,-0.7730,0.5031,-0.5487,-0.9143,-0.3528,
0.494961,0.1517,0.2320,1.0216,-0.1767,-0.7730,0.5031,-0.5487,-0.9143,-0.3528,
0.495558,0.1517,0.2320,1.0216,-0.1767,-0.7730,0.5031,-1.2163,0.1177,0.2980,
0.509163,0.1517,0.2320,1.0216,0.6969,-0.6470,1.4515,-1.2163,0.1177,0.2980,
0.528969,0.1517,0.2320,1.0216,0.7853,-0.5871,3.2161,-1.2163,0.1177,0.2980,
0.548937,0.1517,0.2320,1.0216,-0.1408,-0.3495,3.3851,-1.2163,0.1177,0.2980,
0.560466,0.0446,0.2230,1.2854,-0.1408,-0.3495,3.3851,-1.2163,0.1177,0.2980,
0.561368,0.0446,0.2230,1.2854,-0.1408,-0.3495,3.3851,-0.2761,0.2541,0.1440,
0.568176,0.0446,0.2230,1.2854,-0.4054,-0.0017,2.9479,-0.2761,0.2541,0.1440,
0.588282,0.0446,0.2230,1.2854,0.2052,0.1808,2.2549,-0.2761,0.2541,0.1440,
0.608306,0.0446,0.2230,1.2854,0.3846,0.5265,1.2552,-0.2761,0.2541,0.1440,
0.626536,0.1153,0.2501,1.0450,0.3846,0.5265,1.2552,-0.2761,0.2541,0.1440,
0.627466,0.1153,0.2501,1.0450,0.3846,0.5265,1.2552,0.3025,-0.0520,0.0393,
0.628286,0.1153,0.2501,1.0450,0.3553,0.2263,0.7164,0.3025,-0.0520,0.0393,
0.647951,0.1153,0.2501,1.0450,0.4506,0.2453,0.4545,0.3025,-0.0520,0.0393,
0.667582,0.1153,0.2501,1.0450,0.5423,0.3816,0.1164,0.3025,-0.0520,0.0393,
0.687724,0.1153,0.2501,1.0450,0.5657,0.3375,-0.6662,0.3025,-0.0520,0.0393,
0.691514,0.1558,0.2808,0.8591,0.5657,0.3375,-0.6662,0.3025,-0.0520,0.0393,
0.692079,0.1558,0.2808,0.8591,0.5657,0.3375,-0.6662,0.3457,-0.2529,-0.1046,
0.707793,0.1558,0.2808,0.8591,0.5415,0.3411,-1.4658,0.3457,-0.2529,-0.1046,
0.728194,0.1558,0.2808,0.8591,0.4609,0.2172,-2.0417,0.3457,-0.2529,-0.1046,
0.747229,0.1558,0.2808,0.8591,0.3692,0.3360,-1.9164,0.3457,-0.2529,-0.1046,
0.757404,0.1536,0.3034,0.7735,0.3692,0.3360,-1.9164,0.3457,-0.2529,-0.1046,
0.758325,0.1536,0.3034,0.7735,0.3692,0.3360,-1.9164,-0.2207,-0.0372,-0.1169,
0.766912,0.1536,0.3034,0.7735,0.6481,0.4472,-1.8176,-0.2207,-0.0372,-0.1169,
0.787291,0.1536,0.3034,0.7735,1.4745,0.6341,-1.4698,-0.2207,-0.0372,-0.1169,
0.809244,0.1536,0.3034,0.7735,1.3965,0.6594,-1.1772,-0.2207,-0.0372,-0.1169,
0.824849,0.1777,0.3241,0.9516,1.3965,0.6594,-1.1772,-0.2207,-0.0372,-0.1169,
0.825816,0.1777,0.3241,0.9516,1.3965,0.6594,-1.1772,0.1094,-1.1214,-0.3018,
0.827278,0.1777,0.3241,0.9516,0.4823,0.6707,-0.0852,0.1094,-1.1214,-0.3018,
0.846364,0.1777,0.3241,0.9516,0.7170,0.6245,-0.7477,0.1094,-1.1214,-0.3018,
0.871579,0.1777,0.3241,0.9516,0.4132,0.2176,-1.2286,0.1094,-1.1214,-0.3018,
0.886192,0.1777,0.3241,0.9516,0.0357,-0.6442,-2.7156,0.1094,-1.1214,-0.3018,
0.887916,0.3110,0.1069,0.4545,0.0357,-0.6442,-2.7156,0.1094,-1.1214,-0.3018,
0.888653,0.3110,0.1069,0.4545,0.0357,-0.6442,-2.7156,1.8389,-2.7115,-0.3770,
0.906052,0.3110,0.1069,0.4545,-1.9125,-0.9040,-6.3991,1.8389,-2.7115,-0.3770,
0.925759,0.3110,0.1069,0.4545,-4.0501,-0.5660,-4.4520,1.8389,-2.7115,-0.3770,
0.945795,0.3110,0.1069,0.4545,-3.4368,-2.0363,-4.7369,1.8389,-2.7115,-0.3770,
0.953614,0.1646,0.1489,0.3412,-3.4368,-2.0363,-4.7369,1.8389,-2.7115,-0.3770,
0.955147,0.1646,0.1489,0.3412,-3.4368,-2.0363,-4.7369,1.6059,-4.0028,1.4351,
0.965549,0.1646,0.1489,0.3412,-1.7213,-2.7236,-4.5859,1.6059,-4.0028,1.4351,
0.986033,0.1646,0.1489,0.3412,-1.5733,-3.6093,-3.7491,1.6059,-4.0028,1.4351,
1.013105,0.1646,0.1489,0.3412,-2.0934,-4.1884,-2.8625,1.6059,-4.0028,1.4351,
1.019443,0.2954,-0.0714,0.3370,-2.0934,-4.1884,-2.8625,1.6059,-4.0028,1.4351,
1.020343,0.2954,-0.0714,0.3370,-2.0934,-4.1884,-2.8625,2.4391,-5.6582,2.1080,
1.026215,0.2954,-0.0714,0.3370,-3.9681,-4.8782,-2.6937,2.4391,-5.6582,2.1080,
1.045107,0.2954,-0.0714,0.3370,-5.2618,-5.3217,-4.3096,2.4391,-5.6582,2.1080,
44.095873,0.1660,-0.0133,1.0805,-5.2618,-5.3217,-4.3096,2.4391,-5.6582,2.1080,
44.140397,0.1660,-0.0133,1.0805,-0.8176,-5.4621,-4.7933,2.4391,-5.6582,2.1080,
44.152222,0.1660,-0.0133,1.0805,-0.8176,-5.4621,-4.7933,2.4391,-5.6582,2.1080,
44.153021,0.1660,-0.0133,1.0805,0.0314,0.0558,1.6743,2.4391,-5.6582,2.1080,
44.160060,-0.0254,0.0700,1.0564,0.0314,0.0558,1.6743,2.4391,-5.6582,2.1080,
44.162148,-0.0254,0.0700,1.0564,-0.4252,0.3468,0.5465,2.4391,-5.6582,2.1080,
44.183660,-0.0254,0.0700,1.0564,-0.5057,0.3507,-0.6988,2.4391,-5.6582,2.1080,
44.201697,-0.0254,0.0700,1.0564,-0.4703,0.4714,-1.2478,2.4391,-5.6582,2.1080,
44.221580,-0.0254,0.0700,1.0564,-0.1834,0.5503,-1.4044,2.4391,-5.6582,2.1080,
44.225071,0.0129,0.0939,0.8353,-0.1834,0.5503,-1.4044,2.4391,-5.6582,2.1080,
44.236106,0.0129,0.0939,0.8353,-0.1834,0.5503,-1.4044,0.4947,0.0329,-0.0286,
44.243766,0.0129,0.0939,0.8353,0.1481,0.5713,-2.1152,0.4947,0.0329,-0.0286,
44.263623,0.0129,0.0939,0.8353,-0.1035,0.6449,-1.5705,0.4947,0.0329,-0.0286,
44.283511,0.0129,0.0939,0.8353,-0.2567,0.5373,-1.4780,0.4947,0.0329,-0.0286,
44.291314,0.0166,0.1339,0.8686,-0.2567,0.5373,-1.4780,0.4947,0.0329,-0.0286,
44.291944,0.0166,0.1339,0.8686,-0.2567,0.5373,-1.4780,0.0755,0.1445,0.0209,
44.304549,0.0166,0.1339,0.8686,-0.0394,0.6435,-1.3080,0.0755,0.1445,0.0209,
44.324635,0.0166,0.1339,0.8686,-0.0311,0.6268,-0.7459,0.0755,0.1445,0.0209,
44.342959,0.0166,0.1339,0.8686,0.3368,0.6019,-0.1435,0.0755,0.1445,0.0209,
44.359020,0.0591,0.1307,0.9962,0.3368,0.6019,-0.1435,0.0755,0.1445,0.0209,
44.361412,0.0591,0.1307,0.9962,0.3368,0.6019,-0.1435,-0.1077,0.1272,0.0611,
44.363160,0.0591,0.1307,0.9962,0.5045,0.3787,-0.0199,-0.1077,0.1272,0.0611,
44.384043,0.0591,0.1307,0.9962,0.0908,0.5007,-0.2001,-0.1077,0.1272,0.0611,
44.402609,0.0591,0.1307,0.9962,-0.1294,0.2206,0.4478,-0.1077,0.1272,0.0611,
44.422708,-0.0100,0.1192,1.1055,-0.1294,0.2206,0.4478,-0.1077,0.1272,0.0611,
44.424020,-0.0100,0.1192,1.1055,-0.1294,0.2206,0.4478,0.0372,-0.1424,0.0339,
44.424711,-0.0100,0.1192,1.1055,-0.1965,0.1125,0.9709,0.0372,-0.1424,0.0339,
44.442029,-0.0100,0.1192,1.1055,-0.3145,0.0268,0.9338,0.0372,-0.1424,0.0339,
44.463317,-0.0100,0.1192,1.1055,-0.4965,-0.0530,0.4793,0.0372,-0.1424,0.0339,
44.482092,-0.0100,0.1192,1.1055,-0.2435,-0.0899,0.0662,0.0372,-0.1424,0.0339,
44.488290,0.0156,0.1294,0.9983,-0.2435,-0.0899,0.0662,0.0372,-0.1424,0.0339,
44.488946,0.0156,0.1294,0.9983,-0.2435,-0.0899,0.0662,0.3199,-0.1190,0.1677,
44.501971,0.0156,0.1294,0.9983,0.0120,0.0436,0.0072,0.3199,-0.1190,0.1677,
44.521744,0.0156,0.1294,0.9983,0.0344,0.1906,-0.0125,0.3199,-0.1190,0.1677,
44.541376,0.0156,0.1294,0.9983,0.0595,0.2900,0.4095,0.3199,-0.1190,0.1677,
44.554739,0.0692,0.1802,1.0457,0.0595,0.2900,0.4095,0.3199,-0.1190,0.1677,
44.557207,0.0692,0.1802,1.0457,0.0595,0.2900,0.4095,0.3517,-0.1825,0.1470,
44.561212,0.0692,0.1802,1.0457,0.4291,0.2856,0.4983,0.3517,-0.1825,0.1470,
44.582056,0.0692,0.1802,1.0457,0.6939,0.3622,0.2086,0.3517,-0.1825,0.1470,
44.601297,0.0692,0.1802,1.0457,0.2969,0.3854,0.1560,0.3517,-0.1825,0.1470,
44.620686,0.0514,0.2061,1.0052,0.2969,0.3854,0.1560,0.3517,-0.1825,0.1470,
44.622117,0.0514,0.2061,1.0052,0.2969,0.3854,0.1560,0.3492,-0.1873,0.0201,
44.623181,0.0514,0.2061,1.0052,0.0432,0.3114,0.1728,0.3492,-0.1873,0.0201,
44.641183,0.0514,0.2061,1.0052,0.0322,0.0615,0.2470,0.3492,-0.1873,0.0201,
44.660574,0.0514,0.2061,1.0052,-0.2828,-0.1261,0.2547,0.3492,-0.1873,0.0201,
44.681885,0.0514,0.2061,1.0052,-0.0819,-0.1987,-0.4995,0.3492,-0.1873,0.0201,
44.684322,0.0702,0.1844,0.9036,-0.0819,-0.1987,-0.4995,0.3492,-0.1873,0.0201,
44.684906,0.0702,0.1844,0.9036,-0.0819,-0.1987,-0.4995,0.3889,-0.0625,0.0716,
44.700296,0.0702,0.1844,0.9036,-0.0231,-0.1756,-0.7551,0.3889,-0.0625,0.0716,
44.719756,0.0702,0.1844,0.9036,-0.3967,-0.1142,-0.8584,0.3889,-0.0625,0.0716,
44.740296,0.0702,0.1844,0.9036,-0.3022,-0.0116,-0.7612,0.3889,-0.0625,0.0716,
44.750267,0.0353,0.2247,0.9072,-0.3022,-0.0116,-0.7612,0.3889,-0.0625,0.0716,
44.751396,0.0353,0.2247,0.9072,-0.3022,-0.0116,-0.7612,0.0130,0.2326,0.1686,
44.778801,0.0353,0.2247,0.9072,-0.1272,0.0144,-0.6007,0.0130,0.2326,0.1686,
44.779917,0.0353,0.2247,0.9072,-0.0523,0.0245,-0.0051,0.0130,0.2326,0.1686,
44.800045,0.0353,0.2247,0.9072,0.2494,0.0792,-0.0476,0.0130,0.2326,0.1686,
44.817577,0.0758,0.2316,0.9887,0.2494,0.0792,-0.0476,0.0130,0.2326,0.1686,
44.818841,0.0758,0.2316,0.9887,0.2494,0.0792,-0.0476,-0.0523,0.1527,0.1596,
44.819839,0.0758,0.2316,0.9887,0.2917,0.0879,0.1253,-0.0523,0.1527,0.1596,
44.839082,0.0758,0.2316,0.9887,0.2011,0.0386,0.3871,-0.0523,0.1527,0.1596,
44.859312,0.0758,0.2316,0.9887,0.1803,-0.0388,0.2689,-0.0523,0.1527,0.1596,
44.878617,0.0758,0.2316,0.9887,0.2469,-0.0970,0.0553,-0.0523,0.1527,0.1596,
44.880474,0.0756,0.2146,0.9737,0.2469,-0.0970,0.0553,-0.0523,0.1527,0.1596,
44.881155,0.0756,0.2146,0.9737,0.2469,-0.0970,0.0553,0.0737,0.0263,0.1204,
44.898653,0.0756,0.2146,0.9737,0.3284,-0.0695,-0.0789,0.0737,0.0263,0.1204,
44.919423,0.0756,0.2146,0.9737,0.1781,-0.0485,-0.1945,0.0737,0.0263,0.1204,
44.938427,0.0756,0.2146,0.9737,0.1635,-0.0055,-0.1546,0.0737,0.0263,0.1204,
44.948495,0.0617,0.2182,0.9725,0.1635,-0.0055,-0.1546,0.0737,0.0263,0.1204,
44.951911,0.0617,0.2182,0.9725,0.1635,-0.0055,-0.1546,-0.0075,0.1401,0.0550,
44.958117,0.0617,0.2182,0.9725,0.0264,0.0540,0.1189,-0.0075,0.1401,0.0550,
44.978431,0.0617,0.2182,0.9725,0.1911,-0.0230,0.0786,-0.0075,0.1401,0.0550,
44.998026,0.0617,0.2182,0.9725,0.1167,0.0060,0.4900,-0.0075,0.1401,0.0550,
45.011747,0.0483,0.2157,1.0220,0.1167,0.0060,0.4900,-0.0075,0.1401,0.0550,
45.013081,0.0483,0.2157,1.0220,0.1167,0.0060,0.4900,0.1116,0.1006,0.0231,
45.018084,0.0483,0.2157,1.0220,0.1126,-0.0889,0.4420,0.1116,0.1006,0.0231,
45.037723,0.0483,0.2157,1.0220,0.0005,0.0173,0.1521,0.1116,0.1006,0.0231,
45.057876,0.0483,0.2157,1.0220,0.0301,0.0352,-0.1347,0.1116,0.1006,0.0231,
45.077357,0.0338,0.2354,0.9317,0.0301,0.0352,-0.1347,0.1116,0.1006,0.0231,
45.079718,0.0338,0.2354,0.9317,0.0301,0.0352,-0.1347,0.1289,-0.0428,0.0071,
45.081992,0.0338,0.2354,0.9317,-0.0190,0.0192,-0.4005,0.1289,-0.0428,0.0071,
45.097556,0.0338,0.2354,0.9317,0.0369,0.0293,-0.3145,0.1289,-0.0428,0.0071,
45.117329,0.0338,0.2354,0.9317,-0.0050,-0.0256,-0.2811,0.1289,-0.0428,0.0071,
45.137469,0.0338,0.2354,0.9317,-0.0698,-0.0012,-0.1627,0.1289,-0.0428,0.0071,
45.144243,0.0256,0.2362,0.9672,-0.0698,-0.0012,-0.1627,0.1289,-0.0428,0.0071,
45.145855,0.0256,0.2362,0.9672,-0.0698,-0.0012,-0.1627,-0.0229,0.0422,0.0080,
45.157624,0.0256,0.2362,0.9672,-0.0158,-0.0573,0.0812,-0.0229,0.0422,0.0080,
45.177284,0.0256,0.2362,0.9672,0.0944,-0.0742,0.2079,-0.0229,0.0422,0.0080,
45.197014,0.0256,0.2362,0.9672,0.0470,-0.0674,0.0618,-0.0229,0.0422,0.0080,
45.208422,0.0406,0.2359,0.9680,0.0470,-0.0674,0.0618,-0.0229,0.0422,0.0080,
45.209262,0.0406,0.2359,0.9680,0.0470,-0.0674,0.0618,0.0275,-0.0079,0.0155,
45.217739,0.0406,0.2359,0.9680,0.0470,-0.0249,-0.0636,0.0275,-0.0079,0.0155,
45.236147,0.0406,0.2359,0.9680,-0.0023,-0.0191,-0.1019,0.0275,-0.0079,0.0155,
45.256492,0.0406,0.2359,0.9680,0.1398,0.0495,-0.0040,0.0275,-0.0079,0.0155,
45.274326,0.0545,0.2439,0.9740,0.1398,0.0495,-0.0040,0.0275,-0.0079,0.0155,
45.277005,0.0545,0.2439,0.9740,0.1398,0.0495,-0.0040,-0.0193,0.0418,0.0078,
45.278143,0.0545,0.2439,0.9740,0.2194,0.0422,0.0247,-0.0193,0.0418,0.0078,
45.296209,0.0545,0.2439,0.9740,0.0881,0.1143,0.0727,-0.0193,0.0418,0.0078,
45.317794,0.0545,0.2439,0.9740,0.0050,0.1159,0.0230,-0.0193,0.0418,0.0078,
45.335816,0.0545,0.2439,0.9740,-0.0069,0.0746,-0.0253,-0.0193,0.0418,0.0078,
45.339865,0.0363,0.2453,0.9705,-0.0069,0.0746,-0.0253,-0.0193,0.0418,0.0078,
45.341636,0.0363,0.2453,0.9705,-0.0069,0.0746,-0.0253,0.0141,-0.0248,-0.0186,
45.355947,0.0363,0.2453,0.9705,-0.0038,0.0030,-0.0440,0.0141,-0.0248,-0.0186,
45.376670,0.0363,0.2453,0.9705,-0.1114,-0.0475,0.0544,0.0141,-0.0248,-0.0186,
45.395432,0.0363,0.2453,0.9705,-0.1117,-0.0953,0.1420,0.0141,-0.0248,-0.0186,
45.405797,0.0175,0.2321,0.9821,-0.1117,-0.0953,0.1420,0.0141,-0.0248,-0.0186,
45.408263,0.0175,0.2321,0.9821,-0.1117,-0.0953,0.1420,0.0151,0.0764,0.0117,
45.416197,0.0175,0.2321,0.9821,-0.1749,-0.0855,0.0533,0.0151,0.0764,0.0117,
45.435859,0.0175,0.2321,0.9821,-0.1037,-0.0695,-0.0442,0.0151,0.0764,0.0117,
45.455612,0.0175,0.2321,0.9821,-0.0296,-0.0237,-0.1122,0.0151,0.0764,0.0117,
45.474244,0.0418,0.2375,0.9615,-0.0296,-0.0237,-0.1122,0.0151,0.0764,0.0117,
45.476179,0.0418,0.2375,0.9615,-0.0296,-0.0237,-0.1122,-0.0117,0.0244,0.0412,
45.476839,0.0418,0.2375,0.9615,0.1088,-0.0258,-0.1118,-0.0117,0.0244,0.0412,
45.494853,0.0418,0.2375,0.9615,0.1014,-0.0037,-0.1027,-0.0117,0.0244,0.0412,
45.515233,0.0418,0.2375,0.9615,0.0096,0.0025,0.0720,-0.0117,0.0244,0.0412,
45.537006,0.0418,0.2375,0.9615,-0.0749,-0.0393,0.2663,-0.0117,0.0244,0.0412,
45.538944,0.0291,0.2333,1.0007,-0.0749,-0.0393,0.2663,-0.0117,0.0244,0.0412,
45.541207,0.0291,0.2333,1.0007,-0.0749,-0.0393,0.2663,0.0312,-0.0039,0.0516,
45.554034,0.0291,0.2333,1.0007,0.1975,-0.0893,0.2372,0.0312,-0.0039,0.0516,
45.574558,0.0291,0.2333,1.0007,0.3118,-0.0241,0.0836,0.0312,-0.0039,0.0516,
45.593881,0.0291,0.2333,1.0007,0.4955,0.0438,-0.0089,0.0312,-0.0039,0.0516,
45.606266,0.0506,0.2546,0.9551,0.4955,0.0438,-0.0089,0.0312,-0.0039,0.0516,
45.608054,0.0506,0.2546,0.9551,0.4955,0.0438,-0.0089,0.1059,-0.2875,-0.0426,
45.614809,0.0506,0.2546,0.9551,-0.0963,0.0922,-0.1303,0.1059,-0.2875,-0.0426,
45.636216,0.0506,0.2546,0.9551,-0.3420,0.0635,-0.2405,0.1059,-0.2875,-0.0426,
45.653434,0.0506,0.2546,0.9551,0.1683,0.0075,-0.3395,0.1059,-0.2875,-0.0426,
45.667781,0.0914,0.2495,0.9385,0.1683,0.0075,-0.3395,0.1059,-0.2875,-0.0426,
45.669576,0.0914,0.2495,0.9385,0.1683,0.0075,-0.3395,0.0026,-0.3445,-0.0041,
45.673178,0.0914,0.2495,0.9385,0.2950,-0.0096,-0.3123,0.0026,-0.3445,-0.0041,
45.692871,0.0914,0.2495,0.9385,0.0184,-0.0582,-0.1711,0.0026,-0.3445,-0.0041,
45.714462,0.0914,0.2495,0.9385,-0.1316,-0.0538,0.0517,0.0026,-0.3445,-0.0041,
45.737416,0.0504,0.2341,0.9963,-0.1316,-0.0538,0.0517,0.0026,-0.3445,-0.0041,
45.738996,0.0504,0.2341,0.9963,-0.1316,-0.0538,0.0517,-0.1449,0.2580,0.0065,
45.739954,0.0504,0.2341,0.9963,-0.1746,-0.1355,0.2302,-0.1449,0.2580,0.0065,
45.753548,0.0504,0.2341,0.9963,-0.0914,-0.1475,0.3284,-0.1449,0.2580,0.0065,
45.772847,0.0504,0.2341,0.9963,-0.2004,-0.1421,0.6140,-0.1449,0.2580,0.0065,
45.792396,0.0504,0.2341,0.9963,-0.3563,-0.2482,0.3457,-0.1449,0.2580,0.0065,
45.798073,0.0239,0.2169,0.9942,-0.3563,-0.2482,0.3457,-0.1449,0.2580,0.0065,
45.799928,0.0239,0.2169,0.9942,-0.3563,-0.2482,0.3457,0.0495,-0.0382,0.0305,
45.812118,0.0239,0.2169,0.9942,-0.3069,-0.1749,0.0632,0.0495,-0.0382,0.0305,
45.837970,0.0239,0.2169,0.9942,-0.1324,-0.0938,0.0749,0.0495,-0.0382,0.0305,
45.855005,0.0239,0.2169,0.9942,-0.0787,-0.0395,0.0561,0.0495,-0.0382,0.0305,
45.864811,0.0396,0.2421,0.9813,-0.0787,-0.0395,0.0561,0.0495,-0.0382,0.0305,
45.866676,0.0396,0.2421,0.9813,-0.0787,-0.0395,0.0561,0.0639,0.0120,0.0741,
45.872976,0.0396,0.2421,0.9813,-0.2121,0.0036,0.0573,0.0639,0.0120,0.0741,
45.891880,0.0396,0.2421,0.9813,-0.0272,0.0896,-0.1160,0.0639,0.0120,0.0741,
45.914296,0.0396,0.2421,0.9813,0.0588,0.1172,-0.0149,0.0639,0.0120,0.0741,
45.932408,0.0610,0.2546,0.9583,0.0588,0.1172,-0.0149,0.0639,0.0120,0.0741,
45.934097,0.0610,0.2546,0.9583,0.0588,0.1172,-0.0149,0.0593,0.0068,0.0786,
45.934827,0.0610,0.2546,0.9583,0.0065,0.0859,-0.1197,0.0593,0.0068,0.0786,
45.951918,0.0610,0.2546,0.9583,-0.0243,-0.0518,-0.0680,0.0593,0.0068,0.0786,
45.971146,0.0610,0.2546,0.9583,-0.0518,0.0270,0.1793,0.0593,0.0068,0.0786,
45.991072,0.0610,0.2546,0.9583,-0.0010,-0.0888,0.3180,0.0593,0.0068,0.0786,
45.994947,0.0650,0.2316,1.0014,-0.0010,-0.0888,0.3180,0.0593,0.0068,0.0786,
45.996223,0.0650,0.2316,1.0014,-0.0010,-0.0888,0.3180,0.0925,0.0393,0.0997,
46.010939,0.0650,0.2316,1.0014,0.1035,-0.0720,0.3600,0.0925,0.0393,0.0997,
46.031336,0.0650,0.2316,1.0014,0.0344,-0.0340,0.1006,0.0925,0.0393,0.0997,
46.053638,0.0650,0.2316,1.0014,-0.0699,-0.0086,-0.0006,0.0925,0.0393,0.0997,
46.060655,0.0601,0.2603,0.9598,-0.0699,-0.0086,-0.0006,0.0925,0.0393,0.0997,
46.062223,0.0601,0.2603,0.9598,-0.0699,-0.0086,-0.0006,0.1104,-0.0146,0.0816,
46.071492,0.0601,0.2603,0.9598,0.1276,0.0785,-0.0830,0.1104,-0.0146,0.0816,
46.090135,0.0601,0.2603,0.9598,0.2088,0.1191,-0.1464,0.1104,-0.0146,0.0816,
46.109970,0.0601,0.2603,0.9598,0.2689,0.2667,-0.1506,0.1104,-0.0146,0.0816,
46.128048,0.0718,0.2899,0.9333,0.2689,0.2667,-0.1506,0.1104,-0.0146,0.0816,
46.131215,0.0718,0.2899,0.9333,0.2689,0.2667,-0.1506,0.0331,-0.0124,-0.0124,
46.132301,0.0718,0.2899,0.9333,0.0949,0.2862,-0.3109,0.0331,-0.0124,-0.0124,
46.149916,0.0718,0.2899,0.9333,0.0729,0.2495,-0.0832,0.0331,-0.0124,-0.0124,
46.169690,0.0718,0.2899,0.9333,0.1357,0.2224,0.1021,0.0331,-0.0124,-0.0124,
46.189463,0.0718,0.2899,0.9333,0.2361,0.1532,0.0439,0.0331,-0.0124,-0.0124,
46.192418,0.0967,0.2670,0.9661,0.2361,0.1532,0.0439,0.0331,-0.0124,-0.0124,
46.193442,0.0967,0.2670,0.9661,0.2361,0.1532,0.0439,0.0231,-0.2083,-0.0661,
46.209681,0.0967,0.2670,0.9661,0.2045,-0.0779,-0.1289,0.0231,-0.2083,-0.0661,
46.229771,0.0967,0.2670,0.9661,-0.1303,-0.1249,-0.1541,0.0231,-0.2083,-0.0661,
46.250006,0.0967,0.2670,0.9661,-0.2254,-0.1592,-0.0437,0.0231,-0.2083,-0.0661,
46.256810,0.0543,0.2508,0.9506,-0.2254,-0.1592,-0.0437,0.0231,-0.2083,-0.0661,
46.258810,0.0543,0.2508,0.9506,-0.2254,-0.1592,-0.0437,-0.0016,0.0118,-0.0429,
46.269101,0.0543,0.2508,0.9506,-0.1872,-0.0928,-0.1803,-0.0016,0.0118,-0.0429,
46.289537,0.0543,0.2508,0.9506,-0.3084,0.0168,-0.3382,-0.0016,0.0118,-0.0429,
46.308941,0.0543,0.2508,0.9506,-0.0914,0.1448,-0.2822,-0.0016,0.0118,-0.0429,
46.327506,0.0646,0.2772,0.9404,-0.0914,0.1448,-0.2822,-0.0016,0.0118,-0.0429,
46.330623,0.0646,0.2772,0.9404,-0.0914,0.1448,-0.2822,-0.1446,-0.0482,-0.0419,
46.335113,0.0646,0.2772,0.9404,-0.0570,0.1418,-0.2373,-0.1446,-0.0482,-0.0419,
46.353042,0.0646,0.2772,0.9404,-0.1313,0.0801,0.0893,-0.1446,-0.0482,-0.0419,
46.368158,0.0646,0.2772,0.9404,0.0529,0.0147,0.3252,-0.1446,-0.0482,-0.0419,
46.388191,0.0787,0.2502,1.0160,0.0529,0.0147,0.3252,-0.1446,-0.0482,-0.0419,
46.391191,0.0787,0.2502,1.0160,0.0529,0.0147,0.3252,-0.0590,0.0599,-0.0094,
46.392395,0.0787,0.2502,1.0160,0.1168,-0.0186,0.4941,-0.0590,0.0599,-0.0094,
46.407818,0.0787,0.2502,1.0160,0.1590,-0.0340,0.2051,-0.0590,0.0599,-0.0094,
46.428184,0.0787,0.2502,1.0160,0.1472,-0.0207,-0.1002,-0.0590,0.0599,-0.0094,
46.449505,0.0787,0.2502,1.0160,-0.0436,-0.0323,-0.1222,-0.0590,0.0599,-0.0094,
46.453552,0.0561,0.2462,0.9537,-0.0436,-0.0323,-0.1222,-0.0590,0.0599,-0.0094,
46.455399,0.0561,0.2462,0.9537,-0.0436,-0.0323,-0.1222,-0.1058,0.0828,-0.0312,
46.468536,0.0561,0.2462,0.9537,-0.1099,-0.0154,-0.1666,-0.1058,0.0828,-0.0312,
46.487125,0.0561,0.2462,0.9537,-0.1476,-0.0026,-0.3502,-0.1058,0.0828,-0.0312,
46.507643,0.0561,0.2462,0.9537,-0.1349,-0.0051,-0.4761,-0.1058,0.0828,-0.0312,
46.532451,0.0400,0.2350,0.9304,-0.1349,-0.0051,-0.4761,-0.1058,0.0828,-0.0312,
46.534680,0.0400,0.2350,0.9304,-0.1349,-0.0051,-0.4761,-0.2339,0.0882,-0.0262,
46.536296,0.0400,0.2350,0.9304,-0.2141,-0.0433,-0.3989,-0.2339,0.0882,-0.0262,
46.550397,0.0400,0.2350,0.9304,-0.2641,-0.0592,-0.5085,-0.2339,0.0882,-0.0262,
46.567306,0.0400,0.2350,0.9304,-0.3869,-0.0073,-0.5908,-0.2339,0.0882,-0.0262,
46.584573,0.0329,0.2242,0.8983,-0.3869,-0.0073,-0.5908,-0.2339,0.0882,-0.0262,
46.586280,0.0329,0.2242,0.8983,-0.3869,-0.0073,-0.5908,-0.3678,0.1372,0.0139,
46.591913,0.0329,0.2242,0.8983,-0.2116,0.0453,-0.7440,-0.3678,0.1372,0.0139,
76.112330,0.0329,0.2242,0.8983,-0.0593,0.0710,-0.9069,-0.3678,0.1372,0.0139,
76.113714,0.0061,0.4016,1.0107,-0.0593,0.0710,-0.9069,-0.3678,0.1372,0.0139,
76.114342,0.0061,0.4016,1.0107,-0.0593,0.0710,-0.9069,0.0592,0.3307,0.1080,
76.115923,0.0061,0.4016,1.0107,0.0023,0.2287,0.5915,0.0592,0.3307,0.1080,
76.125801,0.0061,0.4016,1.0107,0.2848,0.1504,0.2889,0.0592,0.3307,0.1080,
76.142815,0.0061,0.4016,1.0107,0.2565,0.1182,0.0094,0.0592,0.3307,0.1080,
76.154374,-0.0035,0.3801,0.8956,0.2565,0.1182,0.0094,0.0592,0.3307,0.1080,
76.156278,-0.0035,0.3801,0.8956,0.2565,0.1182,0.0094,0.3601,0.2705,0.0117,
76.163086,-0.0035,0.3801,0.8956,-0.0134,0.0181,-0.3737,0.3601,0.2705,0.0117,
76.182226,-0.0035,0.3801,0.8956,0.0056,0.0169,-0.5131,0.3601,0.2705,0.0117,
76.203567,-0.0035,0.3801,0.8956,-0.0267,-0.0258,-0.4331,0.3601,0.2705,0.0117,
76.220656,-0.0191,0.3947,0.8898,-0.0267,-0.0258,-0.4331,0.3601,0.2705,0.0117,
76.221659,-0.0191,0.3947,0.8898,-0.0267,-0.0258,-0.4331,0.0453,0.0927,0.0086,
76.223195,-0.0191,0.3947,0.8898,-0.0224,-0.0459,-0.2978,0.0453,0.0927,0.0086,
76.242258,-0.0191,0.3947,0.8898,-0.0654,-0.0348,-0.2601,0.0453,0.0927,0.0086,
76.262093,-0.0191,0.3947,0.8898,0.1006,-0.0578,-0.1606,0.0453,0.0927,0.0086,
76.282924,-0.0191,0.3947,0.8898,0.0597,-0.0260,-0.0139,0.0453,0.0927,0.0086,
76.286266,0.0010,0.3952,0.9288,0.0597,-0.0260,-0.0139,0.0453,0.0927,0.0086,
76.287088,0.0010,0.3952,0.9288,0.0597,-0.0260,-0.0139,-0.0491,0.0502,-0.0166,
76.304368,0.0010,0.3952,0.9288,0.1583,-0.0049,0.1433,-0.0491,0.0502,-0.0166,
76.324930,0.0010,0.3952,0.9288,0.1055,0.0163,0.0793,-0.0491,0.0502,-0.0166,
76.342289,0.0010,0.3952,0.9288,0.0196,0.0450,-0.0772,-0.0491,0.0502,-0.0166,
76.350933,-0.0203,0.3894,0.9881,0.0196,0.0450,-0.0772,-0.0491,0.0502,-0.0166,
76.352196,-0.0203,0.3894,0.9881,0.0196,0.0450,-0.0772,0.0220,0.0258,-0.1164,
76.362969,-0.0203,0.3894,0.9881,-0.3364,0.0387,0.7647,0.0220,0.0258,-0.1164,
76.381696,-0.0203,0.3894,0.9881,-1.0885,0.1400,0.2188,0.0220,0.0258,-0.1164,
76.401691,-0.0203,0.3894,0.9881,-0.4158,-0.0950,0.5455,0.0220,0.0258,-0.1164,
76.419318,0.0423,0.4076,1.0352,-0.4158,-0.0950,0.5455,0.0220,0.0258,-0.1164,
76.421765,0.0423,0.4076,1.0352,-0.4158,-0.0950,0.5455,0.7634,0.2677,0.3221,
76.423589,0.0423,0.4076,1.0352,0.5718,0.0100,1.1795,0.7634,0.2677,0.3221,
76.444179,0.0423,0.4076,1.0352,0.5943,-0.2474,-0.1777,0.7634,0.2677,0.3221,
76.460391,0.0423,0.4076,1.0352,-0.2819,-0.0063,-1.0524,0.7634,0.2677,0.3221,
76.480407,0.0423,0.4076,1.0352,-0.3711,-0.1205,-0.7321,0.7634,0.2677,0.3221,
76.485571,-0.0486,0.4294,0.8264,-0.3711,-0.1205,-0.7321,0.7634,0.2677,0.3221,
76.489003,-0.0486,0.4294,0.8264,-0.3711,-0.1205,-0.7321,0.1902,0.1438,0.5175,
76.501222,-0.0486,0.4294,0.8264,-0.2782,-0.0718,-1.0117,0.1902,0.1438,0.5175,
76.520037,-0.0486,0.4294,0.8264,-0.6131,0.0613,-0.5441,0.1902,0.1438,0.5175,
76.539571,-0.0486,0.4294,0.8264,-0.2714,0.0071,0.2180,0.1902,0.1438,0.5175,
76.547419,0.0066,0.4237,0.8885,-0.2714,0.0071,0.2180,0.1902,0.1438,0.5175,
76.548731,0.0066,0.4237,0.8885,-0.2714,0.0071,0.2180,0.0798,-0.2336,0.8966,
76.559479,0.0066,0.4237,0.8885,0.1986,-0.3764,-0.4641,0.0798,-0.2336,0.8966,
76.579366,0.0066,0.4237,0.8885,0.9675,-0.7917,-1.4380,0.0798,-0.2336,0.8966,
76.599418,0.0066,0.4237,0.8885,0.7558,-0.1787,-1.6850,0.0798,-0.2336,0.8966,
76.613562,0.0394,0.4701,0.8268,0.7558,-0.1787,-1.6850,0.0798,-0.2336,0.8966,
76.614283,0.0394,0.4701,0.8268,0.7558,-0.1787,-1.6850,-0.5864,0.5389,0.6383,
76.620836,0.0394,0.4701,0.8268,0.2178,0.1977,-0.4855,-0.5864,0.5389,0.6383,
76.639751,0.0394,0.4701,0.8268,0.7348,-0.3070,0.8760,-0.5864,0.5389,0.6383,
76.659135,0.0394,0.4701,0.8268,0.8405,0.1092,0.6612,-0.5864,0.5389,0.6383,
76.678805,0.0025,0.4650,0.9134,0.8405,0.1092,0.6612,-0.5864,0.5389,0.6383,
76.680972,0.0025,0.4650,0.9134,0.8405,0.1092,0.6612,-0.6319,0.8219,0.1837,
76.682425,0.0025,0.4650,0.9134,0.1582,0.4948,0.0854,-0.6319,0.8219,0.1837,
76.698620,0.0025,0.4650,0.9134,0.0590,0.5765,-0.2032,-0.6319,0.8219,0.1837,
76.720640,0.0025,0.4650,0.9134,0.4051,0.4189,-0.3034,-0.6319,0.8219,0.1837,
76.739051,0.0025,0.4650,0.9134,-1.1608,0.6800,0.0088,-0.6319,0.8219,0.1837,
76.744891,-0.0609,0.4068,1.0114,-1.1608,0.6800,0.0088,-0.6319,0.8219,0.1837,
76.746118,-0.0609,0.4068,1.0114,-1.1608,0.6800,0.0088,-1.1025,1.2055,0.2567,
76.758408,-0.0609,0.4068,1.0114,0.5588,0.2902,1.4327,-1.1025,1.2055,0.2567,
76.778831,-0.0609,0.4068,1.0114,0.5811,0.0305,1.1287,-1.1025,1.2055,0.2567,
76.797886,-0.0609,0.4068,1.0114,0.7884,-0.4714,-1.1374,-1.1025,1.2055,0.2567,
76.809917,0.0346,0.2373,0.8356,0.7884,-0.4714,-1.1374,-1.1025,1.2055,0.2567,
76.811628,0.0346,0.2373,0.8356,0.7884,-0.4714,-1.1374,-1.5651,0.8634,-0.3815,
76.820034,0.0346,0.2373,0.8356,1.0684,-0.5336,-0.5049,-1.5651,0.8634,-0.3815,
76.838936,0.0346,0.2373,0.8356,-0.1752,0.1395,0.4810,-1.5651,0.8634,-0.3815,
76.857833,0.0346,0.2373,0.8356,-0.4770,-0.0323,0.9024,-1.5651,0.8634,-0.3815,
76.875856,-0.1546,0.1807,1.1678,-0.4770,-0.0323,0.9024,-1.5651,0.8634,-0.3815,
76.878661,-0.1546,0.1807,1.1678,-0.4770,-0.0323,0.9024,-0.7694,0.0101,-0.9887,
76.879956,-0.1546,0.1807,1.1678,0.0123,-0.1567,1.7708,-0.7694,0.0101,-0.9887,
76.897461,-0.1546,0.1807,1.1678,0.3318,-0.0492,2.6546,-0.7694,0.0101,-0.9887,
76.918453,-0.1546,0.1807,1.1678,0.2205,-0.3137,1.8904,-0.7694,0.0101,-0.9887,
76.937797,-0.1546,0.1807,1.1678,-0.0591,-0.3090,0.8006,-0.7694,0.0101,-0.9887,
76.942283,-0.1406,0.1799,1.0400,-0.0591,-0.3090,0.8006,-0.7694,0.0101,-0.9887,
76.944492,-0.1406,0.1799,1.0400,-0.0591,-0.3090,0.8006,1.1418,-1.2984,-0.8961,
76.958480,-0.1406,0.1799,1.0400,0.0254,-0.0805,0.0805,1.1418,-1.2984,-0.8961,
76.976990,-0.1406,0.1799,1.0400,0.1768,-0.0142,-0.4074,1.1418,-1.2984,-0.8961,
76.998052,-0.1406,0.1799,1.0400,0.2217,0.1013,-0.8360,1.1418,-1.2984,-0.8961,
77.006878,-0.0061,0.2701,0.8706,0.2217,0.1013,-0.8360,1.1418,-1.2984,-0.8961,
77.008511,-0.0061,0.2701,0.8706,0.2217,0.1013,-0.8360,0.6990,-0.8039,-0.6742,
77.016863,-0.0061,0.2701,0.8706,0.4991,0.1829,-0.9433,0.6990,-0.8039,-0.6742,
77.036544,-0.0061,0.2701,0.8706,-0.0051,0.0648,-0.7035,0.6990,-0.8039,-0.6742,
77.056329,-0.0061,0.2701,0.8706,-0.2062,-0.0631,-0.3362,0.6990,-0.8039,-0.6742,
77.074364,-0.0668,0.2872,0.9930,-0.2062,-0.0631,-0.3362,0.6990,-0.8039,-0.6742,
77.077706,-0.0668,0.2872,0.9930,-0.2062,-0.0631,-0.3362,0.1527,-0.1001,-0.3422,
77.079075,-0.0668,0.2872,0.9930,-0.3356,0.0881,0.3104,0.1527,-0.1001,-0.3422,
77.096217,-0.0668,0.2872,0.9930,-0.2671,0.1006,0.3476,0.1527,-0.1001,-0.3422,
77.116377,-0.0668,0.2872,0.9930,-0.1988,-0.0651,0.1699,0.1527,-0.1001,-0.3422,
77.138422,-0.0668,0.2872,0.9930,-0.3277,-0.0820,0.1720,0.1527,-0.1001,-0.3422,
77.141320,-0.0682,0.2834,0.9687,-0.3277,-0.0820,0.1720,0.1527,-0.1001,-0.3422,
77.144159,-0.0682,0.2834,0.9687,-0.3277,-0.0820,0.1720,0.2224,0.1463,-0.0374,
77.155816,-0.0682,0.2834,0.9687,-0.2283,-0.0024,-0.0898,0.2224,0.1463,-0.0374,
77.175843,-0.0682,0.2834,0.9687,0.0975,0.0324,-0.4679,0.2224,0.1463,-0.0374,
77.196031,-0.0682,0.2834,0.9687,0.1501,0.1509,-0.1906,0.2224,0.1463,-0.0374,
77.203261,-0.0331,0.3113,0.9522,0.1501,0.1509,-0.1906,0.2224,0.1463,-0.0374,
77.204966,-0.0331,0.3113,0.9522,0.1501,0.1509,-0.1906,0.1387,-0.0766,-0.0375,
77.216567,-0.0331,0.3113,0.9522,0.0403,0.0340,-0.0247,0.1387,-0.0766,-0.0375,
77.235154,-0.0331,0.3113,0.9522,-0.0990,-0.1384,-0.3408,0.1387,-0.0766,-0.0375,
77.255103,-0.0331,0.3113,0.9522,-0.1387,-0.0553,-0.4893,0.1387,-0.0766,-0.0375,
77.270190,-0.0550,0.3163,0.9165,-0.1387,-0.0553,-0.4893,0.1387,-0.0766,-0.0375,
77.274760,-0.0550,0.3163,0.9165,-0.1387,-0.0553,-0.4893,0.0372,0.1348,0.0484,
77.276185,-0.0550,0.3163,0.9165,-0.0886,0.0850,-0.3355,0.0372,0.1348,0.0484,
77.295359,-0.0550,0.3163,0.9165,-0.0391,0.0978,-0.2637,0.0372,0.1348,0.0484,
77.316076,-0.0550,0.3163,0.9165,0.0701,0.1114,-0.1771,0.0372,0.1348,0.0484,
77.335170,-0.0574,0.3078,0.9461,0.0701,0.1114,-0.1771,0.0372,0.1348,0.0484,
77.339079,-0.0574,0.3078,0.9461,0.0701,0.1114,-0.1771,-0.0733,-0.0653,0.0101,
77.340950,-0.0574,0.3078,0.9461,-0.0428,-0.0075,-0.0628,-0.0733,-0.0653,0.0101,
77.354753,-0.0574,0.3078,0.9461,-0.2022,-0.0831,-0.0675,-0.0733,-0.0653,0.0101,
77.374017,-0.0574,0.3078,0.9461,-0.0512,-0.0190,-0.1020,-0.0733,-0.0653,0.0101,
77.393938,-0.0574,0.3078,0.9461,0.0884,-0.0067,-0.0403,-0.0733,-0.0653,0.0101,
77.400578,-0.0470,0.3043,0.9519,0.0884,-0.0067,-0.0403,-0.0733,-0.0653,0.0101,
77.404234,-0.0470,0.3043,0.9519,0.0884,-0.0067,-0.0403,-0.1555,0.0490,0.0744,
77.415940,-0.0470,0.3043,0.9519,-0.1481,-0.0173,0.0588,-0.1555,0.0490,0.0744,
77.434295,-0.0470,0.3043,0.9519,0.0496,-0.1974,0.9236,-0.1555,0.0490,0.0744,
77.453377,-0.0470,0.3043,0.9519,-0.0153,0.0279,0.9814,-0.1555,0.0490,0.0744,
77.465374,-0.0380,0.3245,1.0002,-0.0153,0.0279,0.9814,-0.1555,0.0490,0.0744,
77.467143,-0.0380,0.3245,1.0002,-0.0153,0.0279,0.9814,0.4902,-0.0243,0.0392,
77.473285,-0.0380,0.3245,1.0002,0.1468,0.1680,0.3122,0.4902,-0.0243,0.0392,
77.493379,-0.0380,0.3245,1.0002,-0.0938,0.1515,-0.5798,0.4902,-0.0243,0.0392,
77.513182,-0.0380,0.3245,1.0002,-0.1974,-0.0179,-1.3408,0.4902,-0.0243,0.0392,
77.537503,-0.0541,0.2966,0.8151,-0.1974,-0.0179,-1.3408,0.4902,-0.0243,0.0392,
77.539857,-0.0541,0.2966,0.8151,-0.1974,-0.0179,-1.3408,-0.5254,0.3796,0.0568,
77.541348,-0.0541,0.2966,0.8151,-0.1407,-0.1904,-1.3418,-0.5254,0.3796,0.0568,
