
time,gFx,gFy,gFz,ax,ay,az,wx,wy,wz,
0.071383,-0.0941,0.9887,0.4048,0.0000,0.0000,0.0000,0.0000,0.0000,0.0000,
0.107580,-0.0287,0.9399,0.3523,0.0000,0.0000,0.0000,0.0000,0.0000,0.0000,
0.185930,-0.0817,0.9759,0.3904,0.0000,0.0000,0.0000,0.0000,0.0000,0.0000,
0.224572,-0.0817,0.9759,0.3904,-0.4297,0.4039,0.4122,0.0000,0.0000,0.0000,
0.263538,0.0060,0.9436,0.3522,-0.4297,0.4039,0.4122,0.0000,0.0000,0.0000,
0.264234,0.0060,0.9436,0.3522,-0.4297,0.4039,0.4122,0.1037,0.3950,0.3120,
0.264753,0.0060,0.9436,0.3522,0.6009,-0.0002,-0.5073,0.1037,0.3950,0.3120,
0.303360,0.0060,0.9436,0.3522,0.0165,-0.3553,0.6529,0.1037,0.3950,0.3120,
0.342412,0.0060,0.9436,0.3522,-1.3030,0.6713,0.6775,0.1037,0.3950,0.3120,
0.343102,-0.1809,1.0393,0.4311,-1.3030,0.6713,0.6775,0.1037,0.3950,0.3120,
0.343529,-0.1809,1.0393,0.4311,-1.3030,0.6713,0.6775,0.3384,0.6603,0.3056,
0.381571,-0.1809,1.0393,0.4311,-1.3030,0.6713,0.6775,0.4188,0.2246,0.4190,
0.382398,-0.0635,0.9904,0.2911,-1.3030,0.6713,0.6775,0.4188,0.2246,0.4190,
0.382979,-0.0635,0.9904,0.2911,0.1952,-0.0546,-0.3344,0.4188,0.2246,0.4190,
0.419805,-0.0635,0.9904,0.2911,-0.5201,0.1386,-0.3733,0.4188,0.2246,0.4190,
0.458530,-0.0288,1.0008,0.2966,-0.5201,0.1386,-0.3733,0.4188,0.2246,0.4190,
0.459175,-0.0288,1.0008,0.2966,-0.5201,0.1386,-0.3733,0.3029,0.3146,0.4103,
0.459601,-0.0288,1.0008,0.2966,-0.3133,0.1365,-0.2165,0.3029,0.3146,0.4103,
0.497295,-0.0288,1.0008,0.2966,0.0839,0.0474,0.0846,0.3029,0.3146,0.4103,
0.537922,-0.0288,1.0008,0.2966,0.0839,0.0474,0.0846,0.3511,0.0266,0.3664,
0.538800,-0.0105,1.0354,0.1622,0.0839,0.0474,0.0846,0.3511,0.0266,0.3664,
0.539384,-0.0105,1.0354,0.1622,-0.1400,0.4225,-1.2000,0.3511,0.0266,0.3664,
0.577251,0.1100,1.0004,0.2383,-0.1400,0.4225,-1.2000,0.3511,0.0266,0.3664,
0.578379,0.1100,1.0004,0.2383,-0.3999,-0.3068,-0.0235,0.3511,0.0266,0.3664,
0.614436,0.1100,1.0004,0.2383,-0.3999,-0.3068,-0.0235,0.2592,-0.5365,0.3325,
0.615070,0.1100,1.0004,0.2383,0.9090,0.0131,-0.1355,0.2592,-0.5365,0.3325,
0.654701,0.1100,1.0004,0.2383,0.9090,0.0131,-0.1355,0.2456,0.4865,0.2642,
0.655532,0.2514,1.2568,0.2905,0.9090,0.0131,-0.1355,0.2456,0.4865,0.2642,
0.656014,0.2514,1.2568,0.2905,1.9323,2.0346,0.1185,0.2456,0.4865,0.2642,
0.693009,0.2514,1.2568,0.2905,1.5972,2.3160,1.0140,0.2456,0.4865,0.2642,
0.731785,0.2514,1.2568,0.2905,1.5972,2.3160,1.0140,0.7595,0.3844,0.5856,
0.732529,0.2303,1.2964,0.0888,1.5972,2.3160,1.0140,0.7595,0.3844,0.5856,
0.733009,0.2303,1.2964,0.0888,0.8697,1.3731,-1.6822,0.7595,0.3844,0.5856,
0.770045,0.4530,1.7210,0.3683,0.8697,1.3731,-1.6822,0.7595,0.3844,0.5856,
0.770511,0.4530,1.7210,0.3683,1.5439,4.8605,1.3102,0.7595,0.3844,0.5856,
0.809104,0.4530,1.7210,0.3683,1.5439,4.8605,1.3102,0.1913,0.0377,0.5334,
0.809650,0.4530,1.7210,0.3683,2.6477,5.9625,1.9988,0.1913,0.0377,0.5334,
0.848533,0.4889,1.4044,0.0951,2.6477,5.9625,1.9988,0.1913,0.0377,0.5334,
0.849303,0.4889,1.4044,0.0951,2.6477,5.9625,1.9988,0.9686,-0.5952,1.0011,
0.849912,0.4889,1.4044,0.0951,2.0659,4.2637,1.0859,0.9686,-0.5952,1.0011,
0.887352,0.4889,1.4044,0.0951,2.1746,1.7986,-0.4109,0.9686,-0.5952,1.0011,
0.927317,0.2864,0.7142,-0.0847,2.1746,1.7986,-0.4109,0.9686,-0.5952,1.0011,
0.928143,0.2864,0.7142,-0.0847,2.1746,1.7986,-0.4109,0.9604,-0.6214,0.2198,
0.928719,0.2864,0.7142,-0.0847,1.5207,-2.9140,-0.7248,0.9604,-0.6214,0.2198,
0.965388,0.2864,0.7142,-0.0847,-2.9121,-5.4726,-0.9080,0.9604,-0.6214,0.2198,
1.004989,0.2864,0.7142,-0.0847,-2.9121,-5.4726,-0.9080,0.4143,-2.1756,1.7427,
1.006486,0.2864,0.7142,-0.0847,-6.0858,-8.1012,0.9602,0.4143,-2.1756,1.7427,
1.006976,-0.1841,0.1750,0.0624,-6.0858,-8.1012,0.9602,0.4143,-2.1756,1.7427,
1.043806,0.2187,0.5137,0.3304,-6.0858,-8.1012,0.9602,0.4143,-2.1756,1.7427,
1.044691,0.2187,0.5137,0.3304,-3.9114,-8.7397,4.0959,0.4143,-2.1756,1.7427,
1.082947,0.2187,0.5137,0.3304,-3.9114,-8.7397,4.0959,-0.1670,-0.8534,1.1436,
1.083678,0.2187,0.5137,0.3304,-1.6063,-3.2626,3.4440,-0.1670,-0.8534,1.1436,
1.123116,0.2187,0.5137,0.3304,-1.6063,-3.2626,3.4440,-0.3076,-0.6412,-0.8328,
1.123941,0.2187,0.5137,0.3304,-5.0582,0.0209,5.5545,-0.3076,-0.6412,-0.8328,
1.124500,-0.1478,0.8001,0.2279,-5.0582,0.0209,5.5545,-0.3076,-0.6412,-0.8328,
1.160689,-0.1478,0.8001,0.2279,-4.1568,-3.2144,-0.2513,-0.3076,-0.6412,-0.8328,
1.200322,-0.1478,0.8001,0.2279,-4.1568,-3.2144,-0.2513,0.6088,0.2437,-1.5010,
1.201333,-0.1478,0.8001,0.2279,-2.4415,-2.1360,-1.3985,0.6088,0.2437,-1.5010,
1.202196,0.0345,0.7969,-0.1699,-2.4415,-2.1360,-1.3985,0.6088,0.2437,-1.5010,
1.238417,0.2756,0.9750,-0.0868,-2.4415,-2.1360,-1.3985,0.6088,0.2437,-1.5010,
1.239266,0.2756,0.9750,-0.0868,-0.1295,-0.6040,-0.2362,0.6088,0.2437,-1.5010,
1.277001,0.2756,0.9750,-0.0868,-0.1295,-0.6040,-0.2362,-0.1964,-0.1736,0.2841,
1.277614,0.2756,0.9750,-0.0868,0.1881,0.0853,-0.4195,-0.1964,-0.1736,0.2841,
1.316342,0.2756,0.9750,-0.0868,0.1881,0.0853,-0.4195,-0.1808,-0.1649,0.1662,
1.316906,0.2756,0.9750,-0.0868,-0.1970,0.2603,1.0179,-0.1808,-0.1649,0.1662,
1.317261,0.1758,1.0202,0.0285,-0.1970,0.2603,1.0179,-0.1808,-0.1649,0.1662,
1.355772,0.1758,1.0202,0.0285,-1.0922,0.5789,0.4600,-0.1808,-0.1649,0.1662,
1.394769,0.1758,1.0202,0.0285,-1.0922,0.5789,0.4600,0.2349,0.0199,-0.1050,
1.395663,0.1758,1.0202,0.0285,-2.7608,-1.1184,0.2523,0.2349,0.0199,-0.1050,
1.396368,-0.0977,0.6998,-0.0503,-2.7608,-1.1184,0.2523,0.2349,0.0199,-0.1050,
1.433269,-0.0977,0.6998,-0.0503,-4.1354,-5.1943,-0.2816,0.2349,0.0199,-0.1050,
1.472220,-0.5456,0.2570,-0.2500,-4.1354,-5.1943,-0.2816,0.2349,0.0199,-0.1050,
1.473257,-0.5456,0.2570,-0.2500,-7.0809,-6.7030,-1.7372,0.2349,0.0199,-0.1050,
1.474167,-0.5456,0.2570,-0.2500,-7.0809,-6.7030,-1.7372,0.3880,0.4174,-0.2634,
1.510983,-0.3265,0.3647,0.0365,-7.0809,-6.7030,-1.7372,0.3880,0.4174,-0.2634,
1.511729,-0.3265,0.3647,0.0365,-8.6063,-6.1991,-2.1471,0.3880,0.4174,-0.2634,
1.550175,-0.3265,0.3647,0.0365,-4.2250,-5.0170,1.1515,0.3880,0.4174,-0.2634,
1.551044,-0.3265,0.3647,0.0365,-4.2250,-5.0170,1.1515,-0.6463,1.2733,0.5751,
1.589626,-0.3265,0.3647,0.0365,-4.2250,-5.0170,1.1515,-0.8001,1.7516,0.5454,
1.590622,-0.3265,0.3647,0.0365,-4.2613,-1.5191,1.2662,-0.8001,1.7516,0.5454,
1.591424,-0.0998,0.6920,0.3513,-4.2613,-1.5191,1.2662,-0.8001,1.7516,0.5454,
1.628315,-0.0998,0.6920,0.3513,-1.6876,-2.2986,4.2842,-0.8001,1.7516,0.5454,
1.667045,-0.0998,0.6920,0.3513,-1.6876,-2.2986,4.2842,-0.7299,1.9508,0.1548,
1.667534,-0.0998,0.6920,0.3513,-3.7066,0.5797,0.4259,-0.7299,1.9508,0.1548,
1.667914,-0.0562,0.9292,0.3113,-3.7066,0.5797,0.4259,-0.7299,1.9508,0.1548,
1.706305,0.4568,1.0003,0.5777,-3.7066,0.5797,0.4259,-0.7299,1.9508,0.1548,
1.706965,0.4568,1.0003,0.5777,2.5104,0.3567,5.7330,-0.7299,1.9508,0.1548,
1.744764,0.4568,1.0003,0.5777,2.5104,0.3567,5.7330,-1.4104,1.8910,0.4594,
1.745452,0.4568,1.0003,0.5777,2.5211,1.5320,2.6543,-1.4104,1.8910,0.4594,
1.783819,0.4568,1.0003,0.5777,2.5211,1.5320,2.6543,-1.7029,1.9559,-0.2412,
1.784234,0.4568,1.0003,0.5777,5.5437,1.0675,3.3126,-1.7029,1.9559,-0.2412,
1.784480,0.7035,1.0946,0.8281,5.5437,1.0675,3.3126,-1.7029,1.9559,-0.2412,
1.824296,0.7035,1.0946,0.8281,5.3406,3.5753,4.5080,-1.7029,1.9559,-0.2412,
1.862389,0.7035,1.0946,0.8281,5.3406,3.5753,4.5080,-1.6461,1.6551,-0.3868,
1.863256,0.7035,1.0946,0.8281,5.3174,5.6679,4.7283,-1.6461,1.6551,-0.3868,
1.863844,0.7016,1.4633,1.0318,5.3174,5.6679,4.7283,-1.6461,1.6551,-0.3868,
1.900857,0.7016,1.4633,1.0318,6.4120,8.0919,5.3831,-1.6461,1.6551,-0.3868,
1.939800,0.7016,1.4633,1.0318,6.4120,8.0919,5.3831,-0.9827,0.8220,0.6738,
1.940476,1.0120,1.7836,1.0526,6.4120,8.0919,5.3831,-0.9827,0.8220,0.6738,
1.940904,1.0120,1.7836,1.0526,8.3410,9.5102,4.4204,-0.9827,0.8220,0.6738,
1.979311,1.0120,1.7836,1.0526,8.9206,12.2358,6.3104,-0.9827,0.8220,0.6738,
1.980153,0.9136,1.9763,1.1347,8.9206,12.2358,6.3104,-0.9827,0.8220,0.6738,
2.019446,0.9136,1.9763,1.1347,6.1786,10.5258,5.0882,-0.9827,0.8220,0.6738,
2.020315,0.9136,1.9763,1.1347,6.1786,10.5258,5.0882,0.0906,0.0522,0.5663,
2.057526,0.9136,1.9763,1.1347,3.5733,8.2419,5.1453,0.0906,0.0522,0.5663,
2.058365,0.9136,1.9763,1.1347,3.5733,8.2419,5.1453,1.1908,-0.6215,0.1115,
2.059011,0.4678,1.7726,1.1068,3.5733,8.2419,5.1453,1.1908,-0.6215,0.1115,
2.096109,0.4678,1.7726,1.1068,0.2317,8.1934,6.6157,1.1908,-0.6215,0.1115,
2.135267,0.4678,1.7726,1.1068,0.2317,8.1934,6.6157,1.9959,-1.0232,0.3742,
2.136273,0.4678,1.7726,1.1068,-2.6869,4.2884,8.5076,1.9959,-1.0232,0.3742,
2.137078,0.0155,1.3259,1.1873,-2.6869,4.2884,8.5076,1.9959,-1.0232,0.3742,
2.174464,0.0435,0.4264,0.4933,-2.6869,4.2884,8.5076,1.9959,-1.0232,0.3742,
2.175469,0.0435,0.4264,0.4933,-4.0208,-2.5355,5.3488,1.9959,-1.0232,0.3742,
2.213272,0.0435,0.4264,0.4933,-4.0208,-2.5355,5.3488,2.7536,-0.7994,0.6633,
2.213970,0.0435,0.4264,0.4933,-2.9311,-6.3328,2.5065,2.7536,-0.7994,0.6633,
2.252144,0.0435,0.4264,0.4933,-2.9311,-6.3328,2.5065,1.7731,-0.7901,0.1552,
2.253007,0.0435,0.4264,0.4933,-1.3681,-6.2114,3.1935,1.7731,-0.7901,0.1552,
2.253932,0.1852,0.3648,0.3387,-1.3681,-6.2114,3.1935,1.7731,-0.7901,0.1552,
2.291205,0.1852,0.3648,0.3387,-2.1183,-6.5204,2.3287,1.7731,-0.7901,0.1552,
2.330384,0.2318,0.1790,-0.0295,-2.1183,-6.5204,2.3287,1.7731,-0.7901,0.1552,
2.331344,0.2318,0.1790,-0.0295,-2.1183,-6.5204,2.3287,1.9273,-0.8321,0.5273,
2.332099,0.2318,0.1790,-0.0295,-1.6620,-8.0224,0.9387,1.9273,-0.8321,0.5273,
2.368743,0.2318,0.1790,-0.0295,-1.7828,-7.3814,-0.7432,1.9273,-0.8321,0.5273,
2.408286,0.2318,0.1790,-0.0295,-1.7828,-7.3814,-0.7432,1.2761,-0.5979,0.5363,
2.408867,0.2318,0.1790,-0.0295,-0.8891,-7.9046,0.4129,1.2761,-0.5979,0.5363,
2.409210,0.3309,0.1287,-0.1232,-0.8891,-7.9046,0.4129,1.2761,-0.5979,0.5363,
2.446956,0.3309,0.1287,-0.1232,-0.8891,-7.9046,0.4129,0.7967,-0.3761,0.1089,
2.447916,0.3309,0.1287,-0.1232,-1.7924,-8.0433,-0.4137,0.7967,-0.3761,0.1089,
2.448624,0.3714,0.0065,-0.3451,-1.7924,-8.0433,-0.4137,0.7967,-0.3761,0.1089,
2.485892,0.3714,0.0065,-0.3451,0.0651,-9.0295,-1.5201,0.7967,-0.3761,0.1089,
2.525430,0.3714,0.0065,-0.3451,0.0651,-9.0295,-1.5201,0.2279,-0.3946,0.1481,
2.526364,0.3714,0.0065,-0.3451,0.8245,-9.8335,-2.9323,0.2279,-0.3946,0.1481,
2.527165,0.5165,-0.0975,-0.4728,0.8245,-9.8335,-2.9323,0.2279,-0.3946,0.1481,
2.563952,0.5165,-0.0975,-0.4728,0.8840,-8.9151,-1.5460,0.2279,-0.3946,0.1481,
2.603248,0.5165,-0.0975,-0.4728,0.8840,-8.9151,-1.5460,-1.2670,-0.7093,0.5654,
2.603775,0.5124,0.1736,-0.1744,0.8840,-8.9151,-1.5460,-1.2670,-0.7093,0.5654,
2.604152,0.5124,0.1736,-0.1744,0.5521,-6.8510,-0.1714,-1.2670,-0.7093,0.5654,
2.641794,0.5316,0.3300,0.0565,0.5521,-6.8510,-0.1714,-1.2670,-0.7093,0.5654,
2.642265,0.5316,0.3300,0.0565,0.9185,-5.1156,1.2180,-1.2670,-0.7093,0.5654,
2.680733,0.5316,0.3300,0.0565,0.9185,-5.1156,1.2180,-1.6399,-0.7188,0.2622,
2.681262,0.5316,0.3300,0.0565,0.7645,-5.0434,1.6412,-1.6399,-0.7188,0.2622,
2.719675,0.5316,0.3300,0.0565,0.7645,-5.0434,1.6412,-1.7966,-0.5324,-0.3518,
2.721213,0.3887,0.5551,0.2368,0.7645,-5.0434,1.6412,-1.7966,-0.5324,-0.3518,
2.721590,0.3887,0.5551,0.2368,-0.7742,-3.7645,0.7408,-1.7966,-0.5324,-0.3518,
2.758897,0.3887,0.5551,0.2368,-0.0589,-2.2545,3.7109,-1.7966,-0.5324,-0.3518,
2.797918,0.3887,0.5551,0.2368,-0.0589,-2.2545,3.7109,-1.9411,-0.4312,-0.3925,
2.798728,0.2393,0.8119,0.3342,-0.0589,-2.2545,3.7109,-1.9411,-0.4312,-0.3925,
2.799137,0.2393,0.8119,0.3342,-2.0400,-0.5127,1.9014,-1.9411,-0.4312,-0.3925,
2.836715,0.1989,1.0490,0.5203,-2.0400,-0.5127,1.9014,-1.9411,-0.4312,-0.3925,
2.837309,0.1989,1.0490,0.5203,-0.3794,-0.2040,3.3630,-1.9411,-0.4312,-0.3925,
2.875552,0.1989,1.0490,0.5203,-0.3794,-0.2040,3.3630,-2.1112,-0.3597,-0.4090,
2.876054,0.1989,1.0490,0.5203,-1.7295,1.9919,2.9273,-2.1112,-0.3597,-0.4090,
2.915509,0.2085,1.2323,0.6434,-1.7295,1.9919,2.9273,-2.1112,-0.3597,-0.4090,
2.916708,0.2085,1.2323,0.6434,-1.7295,1.9919,2.9273,-1.8932,-0.2624,-0.6274,
2.917183,0.2085,1.2323,0.6434,-0.9992,3.6450,3.6953,-1.8932,-0.2624,-0.6274,
2.953498,0.2085,1.2323,0.6434,-1.4760,3.9145,2.8406,-1.8932,-0.2624,-0.6274,
2.992532,0.2085,1.2323,0.6434,-1.4760,3.9145,2.8406,-1.4960,-0.3387,-0.4404,
2.992991,0.1134,1.2444,0.6614,-1.4760,3.9145,2.8406,-1.4960,-0.3387,-0.4404,
2.993278,0.1134,1.2444,0.6614,-1.7631,4.4562,3.6135,-1.4960,-0.3387,-0.4404,
3.031681,0.1134,1.2444,0.6614,-2.3869,3.4374,0.8302,-1.4960,-0.3387,-0.4404,
3.070241,0.1134,1.2444,0.6614,-2.3869,3.4374,0.8302,-1.2279,-0.1607,-0.4349,
3.070618,0.1309,1.2492,0.6818,-2.3869,3.4374,0.8302,-1.2279,-0.1607,-0.4349,
3.070860,0.1309,1.2492,0.6818,-1.7113,4.2841,2.1361,-1.2279,-0.1607,-0.4349,
3.110786,0.1459,1.3037,0.6305,-1.7113,4.2841,2.1361,-1.2279,-0.1607,-0.4349,
3.111398,0.1459,1.3037,0.6305,-1.2617,4.1970,1.1560,-1.2279,-0.1607,-0.4349,
3.148379,0.1459,1.3037,0.6305,-1.2617,4.1970,1.1560,-0.9015,-0.1853,-0.3670,
3.148839,0.1459,1.3037,0.6305,-1.2822,5.0286,1.0363,-0.9015,-0.1853,-0.3670,
3.187366,0.1459,1.3037,0.6305,-1.2822,5.0286,1.0363,-0.5418,-0.0905,-0.5455,
3.188103,0.1267,1.2565,0.6801,-1.2822,5.0286,1.0363,-0.5418,-0.0905,-0.5455,
3.188554,0.1267,1.2565,0.6801,-0.8088,5.3802,2.1659,-0.5418,-0.0905,-0.5455,
3.226732,0.1267,1.2565,0.6801,-1.5782,3.3652,0.5557,-0.5418,-0.0905,-0.5455,
3.265421,0.1267,1.2565,0.6801,-1.5782,3.3652,0.5557,-0.0188,0.0243,-0.2239,
3.265956,0.1204,0.9474,0.5532,-1.5782,3.3652,0.5557,-0.0188,0.0243,-0.2239,
3.266259,0.1204,0.9474,0.5532,-1.2393,1.4361,0.1226,-0.0188,0.0243,-0.2239,
3.304850,0.1204,0.9474,0.5532,-0.7995,0.5100,-0.1649,-0.0188,0.0243,-0.2239,
3.305600,0.2137,0.8347,0.5013,-0.7995,0.5100,-0.1649,-0.0188,0.0243,-0.2239,
3.343331,0.2137,0.8347,0.5013,-0.7995,0.5100,-0.1649,-0.0325,0.0826,0.0593,
3.344175,0.2137,0.8347,0.5013,-0.1808,0.1203,-0.5147,-0.0325,0.0826,0.0593,
3.382767,0.2137,0.8347,0.5013,-0.1808,0.1203,-0.5147,-0.1342,0.0549,0.0662,
3.383915,0.2137,0.8347,0.5013,0.6393,0.1851,0.2953,-0.1342,0.0549,0.0662,
3.384557,0.2374,0.8263,0.5472,0.6393,0.1851,0.2953,-0.1342,0.0549,0.0662,
3.421624,0.2374,0.8263,0.5472,-0.2570,0.0481,-0.3434,-0.1342,0.0549,0.0662,
3.460777,0.2374,0.8263,0.5472,-0.2570,0.0481,-0.3434,-0.1197,0.1168,-0.1714,
3.461924,0.1964,0.8953,0.5978,-0.2570,0.0481,-0.3434,-0.1197,0.1168,-0.1714,
3.462529,0.1964,0.8953,0.5978,-0.3605,0.8523,0.2380,-0.1197,0.1168,-0.1714,
3.499309,0.1964,0.8953,0.5978,-0.0685,0.6346,0.4198,-0.1197,0.1168,-0.1714,
3.538492,0.2412,0.8168,0.5607,-0.0685,0.6346,0.4198,-0.1197,0.1168,-0.1714,
3.539666,0.2412,0.8168,0.5607,0.0767,-0.0027,-0.0920,-0.1197,0.1168,-0.1714,
3.540250,0.2412,0.8168,0.5607,0.0767,-0.0027,-0.0920,0.0060,0.0089,0.1722,
3.577941,0.2362,0.8530,0.6035,0.0767,-0.0027,-0.0920,0.0060,0.0089,0.1722,
3.579082,0.2362,0.8530,0.6035,0.3773,0.3365,0.2526,0.0060,0.0089,0.1722,
3.617562,0.2362,0.8530,0.6035,-0.0223,0.3743,0.3622,0.0060,0.0089,0.1722,
3.618567,0.2362,0.8530,0.6035,-0.0223,0.3743,0.3622,-0.0408,0.0157,-0.0009,
3.658125,0.2362,0.8530,0.6035,-0.0223,0.3743,0.3622,0.0729,0.0337,0.0645,
3.659226,0.2176,0.7829,0.5640,-0.0223,0.3743,0.3622,0.0729,0.0337,0.0645,
3.659859,0.2176,0.7829,0.5640,-0.1870,-0.0529,0.1150,0.0729,0.0337,0.0645,
3.696185,0.2176,0.7829,0.5640,-0.1127,-0.6069,-0.1638,0.0729,0.0337,0.0645,
3.734930,0.2176,0.7829,0.5640,-0.1127,-0.6069,-0.1638,0.0158,0.0297,0.1042,
3.736116,0.2176,0.7829,0.5640,0.0316,-0.4139,-0.0992,0.0158,0.0297,0.1042,
3.736865,0.2389,0.7692,0.5546,0.0316,-0.4139,-0.0992,0.0158,0.0297,0.1042,
3.774480,0.2351,0.7684,0.5555,0.0316,-0.4139,-0.0992,0.0158,0.0297,0.1042,
3.775746,0.2351,0.7684,0.5555,-0.0294,-0.5156,-0.1610,0.0158,0.0297,0.1042,
3.813455,0.2351,0.7684,0.5555,-0.0294,-0.5156,-0.1610,-0.0291,0.0124,0.0787,
3.814944,0.2351,0.7684,0.5555,-0.0506,-0.3888,-0.1244,-0.0291,0.0124,0.0787,
3.852728,0.2351,0.7684,0.5555,-0.0506,-0.3888,-0.1244,-0.0474,0.0317,-0.0257,
3.854143,0.2268,0.8033,0.5897,-0.0506,-0.3888,-0.1244,-0.0474,0.0317,-0.0257,
3.855024,0.2268,0.8033,0.5897,0.0583,-0.1998,0.2123,-0.0474,0.0317,-0.0257,
3.891509,0.2268,0.8033,0.5897,-0.1838,0.0479,0.1377,-0.0474,0.0317,-0.0257,
3.931627,0.2268,0.8033,0.5897,-0.1838,0.0479,0.1377,-0.0353,0.0365,0.0274,
3.933730,0.2555,0.8077,0.5748,-0.1838,0.0479,0.1377,-0.0353,0.0365,0.0274,
3.935483,0.2555,0.8077,0.5748,0.1786,-0.0231,-0.0625,-0.0353,0.0365,0.0274,
3.968243,0.2555,0.8077,0.5748,0.1260,0.0983,0.0932,-0.0353,0.0365,0.0274,
4.007068,0.2711,0.8650,0.6169,0.1260,0.0983,0.0932,-0.0353,0.0365,0.0274,
4.007999,0.2711,0.8650,0.6169,0.1260,0.0983,0.0932,-0.0642,0.0095,0.0364,
4.008561,0.2711,0.8650,0.6169,0.2786,0.4839,0.3322,-0.0642,0.0095,0.0364,
4.047200,0.2711,0.8650,0.6169,-0.1108,1.5161,0.2325,-0.0642,0.0095,0.0364,
4.048702,0.3164,1.0749,0.7033,-0.1108,1.5161,0.2325,-0.0642,0.0095,0.0364,
4.086698,0.3164,1.0749,0.7033,0.8710,2.8633,1.4854,-0.0642,0.0095,0.0364,
4.088109,0.3164,1.0749,0.7033,0.8710,2.8633,1.4854,0.0023,0.0049,0.0777,
4.126121,0.3164,1.0749,0.7033,0.8710,2.8633,1.4854,0.2482,-0.0389,0.0928,
4.128248,0.3164,1.0749,0.7033,1.9291,5.7200,1.9607,0.2482,-0.0389,0.0928,
4.129735,0.4889,1.4911,0.8470,1.9291,5.7200,1.9607,0.2482,-0.0389,0.0928,
4.164485,0.4889,1.4911,0.8470,2.5514,7.0062,3.6148,0.2482,-0.0389,0.0928,
4.203786,0.5927,1.7701,0.9609,2.5514,7.0062,3.6148,0.2482,-0.0389,0.0928,
4.205172,0.5927,1.7701,0.9609,2.9205,8.5669,3.9175,0.2482,-0.0389,0.0928,
4.206150,0.5927,1.7701,0.9609,2.9205,8.5669,3.9175,0.8042,-0.1295,0.1283,
4.242480,0.5617,1.6308,1.0764,2.9205,8.5669,3.9175,0.8042,-0.1295,0.1283,
4.244574,0.5617,1.6308,1.0764,2.9255,8.3770,6.1138,0.8042,-0.1295,0.1283,
4.281549,0.5617,1.6308,1.0764,1.6100,6.3755,6.5541,0.8042,-0.1295,0.1283,
4.282931,0.5617,1.6308,1.0764,1.6100,6.3755,6.5541,1.4868,-0.7680,0.8312,
4.320998,0.5617,1.6308,1.0764,1.6100,6.3755,6.5541,2.4420,-1.1771,0.6741,
4.322297,0.2400,1.0759,0.8436,1.6100,6.3755,6.5541,2.4420,-1.1771,0.6741,
4.323271,0.2400,1.0759,0.8436,-0.4508,2.8978,6.4704,2.4420,-1.1771,0.6741,
4.358988,0.2400,1.0759,0.8436,-3.0154,-0.7187,5.6390,2.4420,-1.1771,0.6741,
4.399167,0.2400,1.0759,0.8436,-3.0154,-0.7187,5.6390,2.6240,-1.0819,0.2808,
4.400499,-0.0294,0.3879,0.4674,-3.0154,-0.7187,5.6390,2.6240,-1.0819,0.2808,
4.401248,-0.0294,0.3879,0.4674,-4.1675,-5.0146,4.8429,2.6240,-1.0819,0.2808,
4.437227,-0.0294,0.3879,0.4674,-5.9071,-8.3890,2.6029,2.6240,-1.0819,0.2808,
4.477232,-0.0294,0.3879,0.4674,-5.9071,-8.3890,2.6029,2.4332,-0.7932,-0.0702,
4.478711,-0.2222,-0.0891,-0.0801,-5.9071,-8.3890,2.6029,2.4332,-0.7932,-0.0702,
4.479612,-0.2222,-0.0891,-0.0801,-6.4094,-10.3433,0.5179,2.4332,-0.7932,-0.0702,
4.515676,-0.2222,-0.0891,-0.0801,-6.4094,-10.3433,0.5179,1.6404,-1.0000,0.6312,
4.517284,-0.2756,-0.3655,-0.4229,-6.4094,-10.3433,0.5179,1.6404,-1.0000,0.6312,
4.518491,-0.2756,-0.3655,-0.4229,-6.1009,-11.6799,-0.7042,1.6404,-1.0000,0.6312,
4.553460,-0.2756,-0.3655,-0.4229,-7.2491,-12.6844,-2.0952,1.6404,-1.0000,0.6312,
4.594326,-0.5015,-0.2516,-0.6001,-7.2491,-12.6844,-2.0952,1.6404,-1.0000,0.6312,
4.595949,-0.5015,-0.2516,-0.6001,-9.1892,-11.4842,-4.1872,1.6404,-1.0000,0.6312,
4.597061,-0.5015,-0.2516,-0.6001,-9.1892,-11.4842,-4.1872,0.6745,0.3717,-0.3643,
4.632336,-0.5015,-0.2516,-0.6001,-8.0971,-10.4534,-2.2372,0.6745,0.3717,-0.3643,
4.672205,-0.5015,-0.2516,-0.6001,-8.0971,-10.4534,-2.2372,-0.7159,1.5603,-0.5656,
4.674720,-0.4906,0.0347,-0.2920,-8.0971,-10.4534,-2.2372,-0.7159,1.5603,-0.5656,
4.675988,-0.4906,0.0347,-0.2920,-8.8532,-8.6395,-1.5186,-0.7159,1.5603,-0.5656,
4.710395,0.0909,0.3033,0.1741,-8.8532,-8.6395,-1.5186,-0.7159,1.5603,-0.5656,
4.711745,0.0909,0.3033,0.1741,-5.3912,-5.4622,0.8655,-0.7159,1.5603,-0.5656,
4.749499,0.0909,0.3033,0.1741,-5.3912,-5.4622,0.8655,-1.0478,2.1195,0.1448,
4.750922,0.0909,0.3033,0.1741,-2.2834,-5.4701,2.4373,-1.0478,2.1195,0.1448,
4.789012,0.0909,0.3033,0.1741,-2.2834,-5.4701,2.4373,-1.4763,2.5132,-0.4035,
4.790498,0.0909,0.3033,0.1741,-1.3850,-1.4910,3.0044,-1.4763,2.5132,-0.4035,
4.791384,0.2453,0.8838,0.4674,-1.3850,-1.4910,3.0044,-1.4763,2.5132,-0.4035,
4.827865,0.2453,0.8838,0.4674,-0.5454,1.5030,3.8784,-1.4763,2.5132,-0.4035,
4.866844,0.2453,0.8838,0.4674,-0.5454,1.5030,3.8784,-1.8955,2.2007,-0.0601,
4.868159,0.5533,1.2332,0.8646,-0.5454,1.5030,3.8784,-1.8955,2.2007,-0.0601,
4.869049,0.5533,1.2332,0.8646,2.2227,3.3496,5.6876,-1.8955,2.2007,-0.0601,
4.905209,0.6866,1.2491,1.0135,2.2227,3.3496,5.6876,-1.8955,2.2007,-0.0601,
4.906600,0.6866,1.2491,1.0135,2.4713,4.8384,5.9153,-1.8955,2.2007,-0.0601,
4.943934,0.6866,1.2491,1.0135,2.4713,4.8384,5.9153,-1.3701,1.9746,-0.0473,
4.945221,0.6866,1.2491,1.0135,4.0099,4.0269,5.9382,-1.3701,1.9746,-0.0473,
4.983749,0.6866,1.2491,1.0135,4.0099,4.0269,5.9382,-1.0965,1.7107,0.2527,
4.984969,0.6866,1.2491,1.0135,2.7796,4.2766,4.1991,-1.0965,1.7107,0.2527,
4.985957,0.7621,1.3994,0.9842,2.7796,4.2766,4.1991,-1.0965,1.7107,0.2527,
5.022182,0.7621,1.3994,0.9842,5.6354,6.4561,4.9247,-1.0965,1.7107,0.2527,
5.061131,0.7621,1.3994,0.9842,5.6354,6.4561,4.9247,-0.5396,0.9961,1.2219,
5.062525,1.2794,1.6197,1.0630,5.6354,6.4561,4.9247,-0.5396,0.9961,1.2219,
5.063333,1.2794,1.6197,1.0630,8.3456,7.1278,4.8005,-0.5396,0.9961,1.2219,
5.100337,1.2794,1.6197,1.0630,10.6068,9.4726,5.2674,-0.5396,0.9961,1.2219,
5.139013,1.2794,1.6197,1.0630,10.6068,9.4726,5.2674,0.2747,0.0545,0.5471,
5.140410,1.3804,1.8970,1.3287,10.6068,9.4726,5.2674,0.2747,0.0545,0.5471,
5.141303,1.3804,1.8970,1.3287,10.1383,10.5530,7.8642,0.2747,0.0545,0.5471,
5.177570,0.7663,1.5246,1.1859,10.1383,10.5530,7.8642,0.2747,0.0545,0.5471,
5.178862,0.7663,1.5246,1.1859,6.3012,8.7895,6.5867,0.2747,0.0545,0.5471,
5.215409,0.7663,1.5246,1.1859,6.3012,8.7895,6.5867,1.6659,-0.8244,-0.0925,
5.216569,0.7663,1.5246,1.1859,2.6188,5.2869,7.6259,1.6659,-0.8244,-0.0925,
5.256717,0.7663,1.5246,1.1859,2.6188,5.2869,7.6259,2.4088,-1.1665,0.0025,
5.258206,0.2281,0.8487,0.8195,2.6188,5.2869,7.6259,2.4088,-1.1665,0.0025,
5.259022,0.2281,0.8487,0.8195,-1.1729,0.8004,6.1332,2.4088,-1.1665,0.0025,
5.295100,0.2281,0.8487,0.8195,-3.2143,-3.0048,4.9712,2.4088,-1.1665,0.0025,
5.335427,0.2281,0.8487,0.8195,-4.7604,-6.8619,3.2850,2.4088,-1.1665,0.0025,
5.336757,0.2281,0.8487,0.8195,-4.7604,-6.8619,3.2850,2.3519,-1.0805,0.3598,
5.337570,0.0065,0.2193,0.3753,-4.7604,-6.8619,3.2850,2.3519,-1.0805,0.3598,
5.374157,0.1902,-0.1116,0.0031,-4.7604,-6.8619,3.2850,2.3519,-1.0805,0.3598,
5.375452,0.1902,-0.1116,0.0031,-4.4335,-8.8114,1.4355,2.3519,-1.0805,0.3598,
5.411994,0.1902,-0.1116,0.0031,-3.1662,-10.1392,0.5885,2.3519,-1.0805,0.3598,
5.413699,0.1902,-0.1116,0.0031,-3.1662,-10.1392,0.5885,1.8690,-1.0483,0.6360,
5.451518,0.1902,-0.1116,0.0031,-3.1662,-10.1392,0.5885,1.2579,-1.0594,0.8035,
5.453150,0.1902,-0.1116,0.0031,-1.1467,-11.1021,-0.8649,1.2579,-1.0594,0.8035,
5.454464,0.5329,-0.3130,-0.2652,-1.1467,-11.1021,-0.8649,1.2579,-1.0594,0.8035,
5.490351,0.5329,-0.3130,-0.2652,0.2944,-11.5564,-1.1660,1.2579,-1.0594,0.8035,
5.529964,0.5281,-0.3698,-0.4162,0.2944,-11.5564,-1.1660,1.2579,-1.0594,0.8035,
5.531587,0.5281,-0.3698,-0.4162,0.2944,-11.5564,-1.1660,0.2941,-0.8111,0.2995,
5.532698,0.5281,-0.3698,-0.4162,0.1830,-11.7962,-2.2855,0.2941,-0.8111,0.2995,
5.568438,0.5281,-0.3698,-0.4162,-0.9677,-11.1613,-1.9603,0.2941,-0.8111,0.2995,
5.607143,0.5281,-0.3698,-0.4162,-0.9677,-11.1613,-1.9603,-1.0876,-0.9842,-0.1737,
5.608797,0.4298,-0.0989,-0.1731,-0.9677,-11.1613,-1.9603,-1.0876,-0.9842,-0.1737,
5.610007,0.4298,-0.0989,-0.1731,-0.8817,-8.9848,-0.1739,-1.0876,-0.9842,-0.1737,
5.645857,0.3248,0.1958,0.0640,-0.8817,-8.9848,-0.1739,-1.0876,-0.9842,-0.1737,
5.647055,0.3248,0.1958,0.0640,-1.6638,-7.2978,0.7734,-1.0876,-0.9842,-0.1737,
5.685428,0.3248,0.1958,0.0640,-1.6638,-7.2978,0.7734,-1.6991,-0.9445,-0.4303,
5.686904,0.3248,0.1958,0.0640,-1.5549,-5.7657,1.7348,-1.6991,-0.9445,-0.4303,
5.725087,0.3248,0.1958,0.0640,-1.5549,-5.7657,1.7348,-2.0017,-0.7158,-0.6866,
5.726462,0.1946,0.5944,0.3010,-1.5549,-5.7657,1.7348,-2.0017,-0.7158,-0.6866,
5.727326,0.1946,0.5944,0.3010,-2.5981,-4.2653,2.4329,-2.0017,-0.7158,-0.6866,
5.762993,0.1946,0.5944,0.3010,-2.2688,-0.3666,3.2760,-2.0017,-0.7158,-0.6866,
5.801301,0.1946,0.5944,0.3010,-2.2688,-0.3666,3.2760,-2.3154,-0.6531,-0.4791,
5.803476,0.3175,1.0709,0.5358,-2.2688,-0.3666,3.2760,-2.3154,-0.6531,-0.4791,
5.804954,0.3175,1.0709,0.5358,-0.6233,1.3760,3.7832,-2.3154,-0.6531,-0.4791,
5.840936,0.3175,1.0709,0.5358,-1.8962,5.5125,4.6715,-2.3154,-0.6531,-0.4791,
5.842200,0.1319,1.3283,0.6061,-1.8962,5.5125,4.6715,-2.3154,-0.6531,-0.4791,
5.879930,0.1319,1.3283,0.6061,-1.8962,5.5125,4.6715,-1.9972,-0.3964,-1.3462,
5.881123,0.1319,1.3283,0.6061,-1.9068,4.3780,3.5219,-1.9972,-0.3964,-1.3462,
5.919752,0.1319,1.3283,0.6061,-1.9068,4.3780,3.5219,-1.8186,-0.4295,-1.1865,
5.921115,-0.0714,1.6390,0.6197,-1.9068,4.3780,3.5219,-1.8186,-0.4295,-1.1865,
5.921977,-0.0714,1.6390,0.6197,-3.8938,7.2361,2.6630,-1.8186,-0.4295,-1.1865,
5.957041,-0.0714,1.6390,0.6197,-2.8392,7.4979,2.9044,-1.8186,-0.4295,-1.1865,
5.997962,-0.0714,1.6390,0.6197,-2.8392,7.4979,2.9044,-0.9688,-0.0211,-0.9091,
5.999265,-0.0498,1.4604,0.5072,-2.8392,7.4979,2.9044,-0.9688,-0.0211,-0.9091,
6.000075,-0.0498,1.4604,0.5072,-2.7292,6.1051,1.4083,-0.9688,-0.0211,-0.9091,
6.036530,-0.0498,1.4604,0.5072,-1.9471,4.4267,0.6994,-0.9688,-0.0211,-0.9091,
6.075718,-0.0498,1.4604,0.5072,-1.9471,4.4267,0.6994,-0.6159,0.1052,-0.3924,
6.077036,-0.0498,1.4604,0.5072,-0.6568,3.7439,0.6701,-0.6159,0.1052,-0.3924,
6.077958,0.1083,1.2731,0.4935,-0.6568,3.7439,0.6701,-0.6159,0.1052,-0.3924,
6.114312,0.1537,1.1135,0.5263,-0.6568,3.7439,0.6701,-0.6159,0.1052,-0.3924,
6.116828,0.1537,1.1135,0.5263,-1.3264,3.0177,0.4547,-0.6159,0.1052,-0.3924,
6.153045,0.1537,1.1135,0.5263,-1.3264,3.0177,0.4547,-0.4575,0.0809,-0.0996,
6.154610,0.1537,1.1135,0.5263,0.2175,1.8880,0.8517,-0.4575,0.0809,-0.0996,
6.192820,0.1537,1.1135,0.5263,0.2175,1.8880,0.8517,-0.1196,0.0303,-0.0299,
6.194165,0.1525,0.9549,0.4581,0.2175,1.8880,0.8517,-0.1196,0.0303,-0.0299,
6.195053,0.1525,0.9549,0.4581,-0.3167,0.7844,-0.2620,-0.1196,0.0303,-0.0299,
6.230635,0.1525,0.9549,0.4581,0.0639,0.4253,0.3276,-0.1196,0.0303,-0.0299,
6.270405,0.1525,0.9549,0.4581,0.0639,0.4253,0.3276,-0.1265,-0.0191,-0.0021,
6.272182,0.1084,0.9280,0.4632,0.0639,0.4253,0.3276,-0.1265,-0.0191,-0.0021,
6.273200,0.1084,0.9280,0.4632,-0.5901,0.3792,0.0107,-0.1265,-0.0191,-0.0021,
6.308192,0.2156,0.9030,0.5017,-0.5901,0.3792,0.0107,-0.1265,-0.0191,-0.0021,
6.308896,0.2156,0.9030,0.5017,-0.5931,0.3995,-0.0874,-0.1265,-0.0191,-0.0021,
6.348421,0.2156,0.9030,0.5017,-0.5931,0.3995,-0.0874,-0.1151,0.0803,0.1232,
6.350065,0.2156,0.9030,0.5017,0.5332,0.1446,0.3554,-0.1151,0.0803,0.1232,
6.387745,0.2156,0.9030,0.5017,0.5332,0.1446,0.3554,-0.0793,-0.0215,0.1199,
6.389088,0.2156,0.9030,0.5017,0.0542,0.0323,-0.0941,-0.0793,-0.0215,0.1199,
6.390042,0.1583,0.9062,0.4769,0.0542,0.0323,-0.0941,-0.0793,-0.0215,0.1199,
6.426018,0.1583,0.9062,0.4769,-0.3679,0.3670,0.0973,-0.0793,-0.0215,0.1199,
6.465408,0.1583,0.9062,0.4769,-0.3679,0.3670,0.0973,-0.0158,0.0397,0.0288,
6.467517,0.1503,0.8838,0.4824,-0.3679,0.3670,0.0973,-0.0158,0.0397,0.0288,
6.468471,0.1503,0.8838,0.4824,-0.2682,0.0640,0.1437,-0.0158,0.0397,0.0288,
6.504370,0.1503,0.8838,0.4824,-0.3769,-0.0734,-0.1404,-0.0158,0.0397,0.0288,
6.543622,0.1912,0.9097,0.5009,-0.3769,-0.0734,-0.1404,-0.0158,0.0397,0.0288,
6.544884,0.1912,0.9097,0.5009,-0.3769,-0.0734,-0.1404,-0.0624,0.0161,0.2230,
6.545831,0.1912,0.9097,0.5009,-0.0057,0.3026,0.1982,-0.0624,0.0161,0.2230,
6.581450,0.1912,0.9097,0.5009,-0.0057,0.3026,0.1982,-0.0276,0.0168,0.1329,
6.583011,0.2451,1.1765,0.5456,-0.0057,0.3026,0.1982,-0.0276,0.0168,0.1329,
6.583795,0.2451,1.1765,0.5456,0.0598,1.2043,0.4696,-0.0276,0.0168,0.1329,
6.620825,0.2451,1.1765,0.5456,0.4771,3.5481,0.6919,-0.0276,0.0168,0.1329,
6.660987,0.2451,1.1765,0.5456,0.4771,3.5481,0.6919,0.2356,-0.1709,0.7927,
6.662700,0.5224,1.4616,0.7278,0.4771,3.5481,0.6919,0.2356,-0.1709,0.7927,
6.663727,0.5224,1.4616,0.7278,2.6996,5.7022,2.6290,0.2356,-0.1709,0.7927,
6.699275,0.5224,1.4616,0.7278,2.2872,5.3067,2.5893,0.2356,-0.1709,0.7927,
6.738325,0.5224,1.4616,0.7278,2.2872,5.3067,2.5893,0.7526,-0.2726,0.3511,
6.739464,0.5224,1.4616,0.7278,1.7516,7.0435,2.1670,0.7526,-0.2726,0.3511,
6.740237,0.4910,1.6839,0.6811,1.7516,7.0435,2.1670,0.7526,-0.2726,0.3511,
6.777001,0.5483,1.6855,0.9987,1.7516,7.0435,2.1670,0.7526,-0.2726,0.3511,
6.778412,0.5483,1.6855,0.9987,2.5495,9.3535,5.0276,0.7526,-0.2726,0.3511,
6.815160,0.5483,1.6855,0.9987,2.5495,9.3535,5.0276,0.9557,-0.7571,0.9945,
6.816272,0.5483,1.6855,0.9987,1.3043,6.6857,6.7916,0.9557,-0.7571,0.9945,
6.854392,0.5483,1.6855,0.9987,1.3043,6.6857,6.7916,2.2036,-0.9322,0.6326,
6.855981,0.2429,1.0177,0.6261,1.3043,6.6857,6.7916,2.2036,-0.9322,0.6326,
6.857049,0.2429,1.0177,0.6261,-0.9092,2.4110,4.9196,2.2036,-0.9322,0.6326,
6.893898,0.2429,1.0177,0.6261,-2.6293,-1.4470,3.9980,2.2036,-0.9322,0.6326,
6.933547,0.2429,1.0177,0.6261,-2.6293,-1.4470,3.9980,1.9730,-0.7516,0.0014,
6.935148,0.2429,1.0177,0.6261,-4.3742,-4.6076,2.2588,1.9730,-0.7516,0.0014,
6.936229,-0.0343,0.5102,0.2441,-4.3742,-4.6076,2.2588,1.9730,-0.7516,0.0014,
6.972044,0.0667,0.4479,0.0431,-4.3742,-4.6076,2.2588,1.9730,-0.7516,0.0014,
6.973368,0.0667,0.4479,0.0431,-4.9746,-5.1150,1.1820,1.9730,-0.7516,0.0014,
7.010842,0.0667,0.4479,0.0431,-4.9746,-5.1150,1.1820,1.2691,-0.7538,0.3379,
7.012149,0.0667,0.4479,0.0431,-3.7584,-5.0365,1.0299,1.2691,-0.7538,0.3379,
7.050664,0.0667,0.4479,0.0431,-3.7584,-5.0365,1.0299,1.2658,-1.4016,1.2170,
7.051961,0.0667,0.4479,0.0431,-3.3951,-5.2477,1.1849,1.2658,-1.4016,1.2170,
7.052855,0.1615,0.2389,-0.0896,-3.3951,-5.2477,1.1849,1.2658,-1.4016,1.2170,
7.088837,0.1615,0.2389,-0.0896,-3.1477,-7.0791,0.7888,1.2658,-1.4016,1.2170,
7.127739,0.1615,0.2389,-0.0896,-3.1477,-7.0791,0.7888,1.5604,-0.3878,-0.2831,
7.129297,-0.0526,-0.0357,-0.4705,-3.1477,-7.0791,0.7888,1.5604,-0.3878,-0.2831,
7.130489,-0.0526,-0.0357,-0.4705,-4.6710,-8.7585,-1.5366,1.5604,-0.3878,-0.2831,
7.166694,-0.0526,-0.0357,-0.4705,-5.2394,-9.0932,-2.4568,1.5604,-0.3878,-0.2831,
7.206623,-0.0526,-0.0357,-0.4705,-4.9012,-8.9626,-3.2666,1.5604,-0.3878,-0.2831,
7.208263,-0.0526,-0.0357,-0.4705,-4.9012,-8.9626,-3.2666,0.6831,0.4165,-0.5403,
7.209069,-0.0745,-0.0579,-0.6248,-4.9012,-8.9626,-3.2666,0.6831,0.4165,-0.5403,
7.245055,-0.1292,0.1652,-0.3495,-4.9012,-8.9626,-3.2666,0.6831,0.4165,-0.5403,
7.247313,-0.1292,0.1652,-0.3495,-4.5559,-8.0714,-2.6830,0.6831,0.4165,-0.5403,
7.284076,-0.1292,0.1652,-0.3495,-5.5260,-6.2587,-0.5914,0.6831,0.4165,-0.5403,
7.286427,-0.1292,0.1652,-0.3495,-5.5260,-6.2587,-0.5914,-0.4171,0.6879,0.1742,
7.323505,-0.1292,0.1652,-0.3495,-5.5260,-6.2587,-0.5914,-0.7603,1.4216,-0.8059,
7.324857,-0.2437,0.4936,-0.0872,-5.5260,-6.2587,-0.5914,-0.7603,1.4216,-0.8059,
7.325875,-0.2437,0.4936,-0.0872,-6.6849,-3.1050,-0.8549,-0.7603,1.4216,-0.8059,
7.361689,-0.2437,0.4936,-0.0872,-5.4304,-4.0191,2.2040,-0.7603,1.4216,-0.8059,
7.401155,-0.2437,0.4936,-0.0872,-5.4304,-4.0191,2.2040,-0.8527,2.1167,-0.9061,
7.402555,-0.0518,0.4339,0.0432,-5.4304,-4.0191,2.2040,-0.8527,2.1167,-0.9061,
7.403328,-0.0518,0.4339,0.0432,-4.3339,-4.6035,0.7124,-0.8527,2.1167,-0.9061,
7.439935,0.3287,0.9163,0.5101,-4.3339,-4.6035,0.7124,-0.8527,2.1167,-0.9061,
7.441141,0.3287,0.9163,0.5101,-1.6685,-3.3736,1.5005,-0.8527,2.1167,-0.9061,
7.478689,0.3287,0.9163,0.5101,-1.6685,-3.3736,1.5005,-2.0369,2.3095,-0.3762,
7.479977,0.3287,0.9163,0.5101,0.2559,0.6880,3.8170,-2.0369,2.3095,-0.3762,
7.516252,0.4383,0.9779,0.7734,0.2559,0.6880,3.8170,-2.0369,2.3095,-0.3762,
7.517571,0.4383,0.9779,0.7734,2.3700,0.2766,5.5571,-2.0369,2.3095,-0.3762,
7.518619,0.4383,0.9779,0.7734,2.3700,0.2766,5.5571,-1.8562,1.8613,-0.0723,
7.556744,0.4383,0.9779,0.7734,1.0629,1.8074,4.3269,-1.8562,1.8613,-0.0723,
7.596119,0.4383,0.9779,0.7734,1.0629,1.8074,4.3269,-1.7348,1.7433,-0.3702,
7.597351,0.4383,0.9779,0.7734,2.6445,1.9477,5.5592,-1.7348,1.7433,-0.3702,
7.598380,0.4595,1.1028,0.9916,2.6445,1.9477,5.5592,-1.7348,1.7433,-0.3702,
7.634741,0.4595,1.1028,0.9916,1.4088,4.2336,5.4435,-1.7348,1.7433,-0.3702,
7.674088,0.4595,1.1028,0.9916,1.4088,4.2336,5.4435,-1.5273,1.4100,0.3394,
7.675530,0.6322,1.4231,1.0658,1.4088,4.2336,5.4435,-1.5273,1.4100,0.3394,
7.676404,0.6322,1.4231,1.0658,4.0097,6.2952,5.2593,-1.5273,1.4100,0.3394,
7.710682,0.6322,1.4231,1.0658,3.5945,5.7225,4.3125,-1.5273,1.4100,0.3394,
7.711239,0.7657,1.5935,1.0824,3.5945,5.7225,4.3125,-1.5273,1.4100,0.3394,
7.749907,0.7657,1.5935,1.0824,3.5945,5.7225,4.3125,-0.8023,1.1765,0.6848,
7.750560,0.7657,1.5935,1.0824,5.5422,8.7386,4.8131,-0.8023,1.1765,0.6848,
7.789187,0.7657,1.5935,1.0824,5.5422,8.7386,4.8131,-0.0492,0.5062,1.1101,
7.790244,0.7657,1.5935,1.0824,8.0556,10.1677,5.5458,-0.0492,0.5062,1.1101,
7.790873,1.1333,1.8110,1.1993,8.0556,10.1677,5.5458,-0.0492,0.5062,1.1101,
7.827918,1.1333,1.8110,1.1993,8.1565,9.8877,5.9792,-0.0492,0.5062,1.1101,
7.867535,1.1333,1.8110,1.1993,8.1565,9.8877,5.9792,1.0236,-0.3166,0.5640,
7.869009,1.1333,1.8110,1.1993,6.3499,9.7062,5.9031,1.0236,-0.3166,0.5640,
7.870087,0.9803,1.8165,1.2192,6.3499,9.7062,5.9031,1.0236,-0.3166,0.5640,
7.906212,0.5202,1.3212,1.1408,6.3499,9.7062,5.9031,1.0236,-0.3166,0.5640,
7.907229,0.5202,1.3212,1.1408,4.7389,8.3802,8.9625,1.0236,-0.3166,0.5640,
7.945238,0.5202,1.3212,1.1408,4.7389,8.3802,8.9625,2.1210,-0.9887,0.3314,
7.946291,0.5202,1.3212,1.1408,0.5241,3.3650,7.0309,2.1210,-0.9887,0.3314,
7.983892,0.1690,0.7304,0.7856,0.5241,3.3650,7.0309,2.1210,-0.9887,0.3314,
7.985167,0.1690,0.7304,0.7856,0.5241,3.3650,7.0309,2.5614,-1.1703,0.3918,
7.985977,0.1690,0.7304,0.7856,-0.9674,-0.8378,6.2191,2.5614,-1.1703,0.3918,
8.023104,0.1690,0.7304,0.7856,-4.1479,-3.2677,4.9479,2.5614,-1.1703,0.3918,
8.062432,0.1690,0.7304,0.7856,-4.1479,-3.2677,4.9479,2.2393,-0.9704,0.4917,
8.063686,0.0755,0.2510,0.5559,-4.1479,-3.2677,4.9479,2.2393,-0.9704,0.4917,
8.064457,0.0755,0.2510,0.5559,-4.4939,-5.6850,5.3088,2.2393,-0.9704,0.4917,
8.101477,0.0755,0.2510,0.5559,-3.5888,-9.3883,3.7491,2.2393,-0.9704,0.4917,
8.140348,0.0755,0.2510,0.5559,-3.5888,-9.3883,3.7491,2.3040,-1.0020,0.5853,
8.141676,0.1754,-0.0904,-0.0267,-3.5888,-9.3883,3.7491,2.3040,-1.0020,0.5853,
8.142505,0.1754,-0.0904,-0.0267,-3.6336,-9.6548,0.6502,2.3040,-1.0020,0.5853,
8.179401,0.4183,-0.5673,-0.3652,-3.6336,-9.6548,0.6502,2.3040,-1.0020,0.5853,
8.180731,0.4183,-0.5673,-0.3652,-0.2344,-12.4200,0.8062,2.3040,-1.0020,0.5853,
8.217900,0.4183,-0.5673,-0.3652,-0.2344,-12.4200,0.8062,1.6870,-0.5911,0.0405,
8.219342,0.4183,-0.5673,-0.3652,-1.1582,-14.4547,-2.2444,1.6870,-0.5911,0.0405,
8.257944,0.5514,-0.5856,-0.5519,-1.1582,-14.4547,-2.2444,1.6870,-0.5911,0.0405,
8.259863,0.5514,-0.5856,-0.5519,-1.1582,-14.4547,-2.2444,0.5683,-0.4629,-0.2838,
8.260739,0.5514,-0.5856,-0.5519,0.2683,-14.3385,-3.8681,0.5683,-0.4629,-0.2838,
8.296672,0.5514,-0.5856,-0.5519,0.8742,-13.1871,-2.1489,0.5683,-0.4629,-0.2838,
8.335183,0.5514,-0.5856,-0.5519,0.8742,-13.1871,-2.1489,-1.6491,-0.7956,0.0883,
8.336593,0.5232,-0.2431,-0.2027,0.8742,-13.1871,-2.1489,-1.6491,-0.7956,0.0883,
8.337544,0.5232,-0.2431,-0.2027,0.4280,-10.6022,-0.9120,-1.6491,-0.7956,0.0883,
8.375796,0.2464,0.0962,0.0872,0.4280,-10.6022,-0.9120,-1.6491,-0.7956,0.0883,
8.378159,0.2464,0.0962,0.0872,-0.0875,-9.1412,2.2330,-1.6491,-0.7956,0.0883,
8.412878,0.2464,0.0962,0.0872,-0.0875,-9.1412,2.2330,-2.2725,-0.9229,-0.4366,
8.414181,0.2464,0.0962,0.0872,-2.1725,-6.8954,1.4148,-2.2725,-0.9229,-0.4366,
8.451458,0.2464,0.0962,0.0872,-2.1725,-6.8954,1.4148,-2.5368,-0.7922,-0.7356,
8.452166,0.2464,0.0962,0.0872,-1.8908,-4.9088,3.0247,-2.5368,-0.7922,-0.7356,
8.452494,0.1656,0.5904,0.4492,-1.8908,-4.9088,3.0247,-2.5368,-0.7922,-0.7356,
8.490424,0.1656,0.5904,0.4492,-2.5733,-0.6751,4.2372,-2.5368,-0.7922,-0.7356,
8.529917,0.1390,1.0833,0.7636,-2.5733,-0.6751,4.2372,-2.5368,-0.7922,-0.7356,
8.531059,0.1390,1.0833,0.7636,-2.5733,-0.6751,4.2372,-2.6481,-0.7677,-0.5122,
8.531588,0.1390,1.0833,0.7636,-1.5993,1.5414,5.6700,-2.6481,-0.7677,-0.5122,
8.568782,0.1390,1.0833,0.7636,-3.7469,4.5929,5.0031,-2.6481,-0.7677,-0.5122,
8.607732,-0.0710,1.3349,0.8337,-3.7469,4.5929,5.0031,-2.6481,-0.7677,-0.5122,
8.608724,-0.0710,1.3349,0.8337,-3.7469,4.5929,5.0031,-2.0794,-0.3033,-0.9044,
8.609257,-0.0710,1.3349,0.8337,-3.6634,4.8760,5.0488,-2.0794,-0.3033,-0.9044,
8.646718,-0.0710,1.3349,0.8337,-3.6634,4.8760,5.0488,-1.8955,-0.3028,-0.6628,
8.647743,0.0968,1.5785,0.7773,-3.6634,4.8760,5.0488,-1.8955,-0.3028,-0.6628,
8.648459,0.0968,1.5785,0.7773,-2.2377,4.8843,2.5512,-1.8955,-0.3028,-0.6628,
8.685569,0.0968,1.5785,0.7773,-1.6071,8.4839,3.6670,-1.8955,-0.3028,-0.6628,
8.724929,0.0968,1.5785,0.7773,-1.6071,8.4839,3.6670,-1.5129,-0.1836,-0.5962,
8.726167,0.0704,1.7219,0.8307,-1.6071,8.4839,3.6670,-1.5129,-0.1836,-0.5962,
8.726816,0.0704,1.7219,0.8307,-1.8208,9.6256,3.8354,-1.5129,-0.1836,-0.5962,
8.763566,0.0704,1.7219,0.8307,-1.5211,7.9588,2.2500,-1.5129,-0.1836,-0.5962,
8.802850,0.0704,1.7219,0.8307,-1.5211,7.9588,2.2500,-0.5869,-0.0154,-0.5563,
8.803814,0.0704,1.7219,0.8307,-1.8676,6.1648,1.5550,-0.5869,-0.0154,-0.5563,
8.804473,0.0330,1.4199,0.6943,-1.8676,6.1648,1.5550,-0.5869,-0.0154,-0.5563,
8.841897,0.0022,1.0376,0.5512,-1.8676,6.1648,1.5550,-0.5869,-0.0154,-0.5563,
8.843002,0.0022,1.0376,0.5512,-0.8997,3.8092,1.3102,-0.5869,-0.0154,-0.5563,
8.880593,0.0022,1.0376,0.5512,-0.8997,3.8092,1.3102,0.0153,0.0731,-0.4583,
8.881634,0.0022,1.0376,0.5512,-1.9124,1.6104,-0.0798,0.0153,0.0731,-0.4583,
8.919430,0.2121,0.8491,0.5313,-1.9124,1.6104,-0.0798,0.0153,0.0731,-0.4583,
8.920389,0.2121,0.8491,0.5313,-1.9124,1.6104,-0.0798,-0.0463,0.1230,0.2149,
8.921035,0.2121,0.8491,0.5313,-0.2094,0.2381,-0.3281,-0.0463,0.1230,0.2149,
8.958709,0.2121,0.8491,0.5313,0.4594,0.0648,0.0420,-0.0463,0.1230,0.2149,
8.997573,0.2067,0.8472,0.5696,0.4594,0.0648,0.0420,-0.0463,0.1230,0.2149,
8.998689,0.2067,0.8472,0.5696,0.2212,0.0300,0.3596,-0.0463,0.1230,0.2149,
8.999290,0.2067,0.8472,0.5696,0.2212,0.0300,0.3596,-0.0474,0.0013,0.1623,
9.036414,0.1380,0.8871,0.5341,0.2212,0.0300,0.3596,-0.0474,0.0013,0.1623,
9.037406,0.1380,0.8871,0.5341,-0.3102,0.3997,-0.0695,-0.0474,0.0013,0.1623,
9.075631,0.1380,0.8871,0.5341,-0.3102,0.3997,-0.0695,0.0256,-0.0092,-0.0515,
9.076637,0.1380,0.8871,0.5341,-0.6084,0.5116,-0.0974,0.0256,-0.0092,-0.0515,
9.114489,0.1954,0.8119,0.5236,-0.6084,0.5116,-0.0974,0.0256,-0.0092,-0.0515,
9.115523,0.1954,0.8119,0.5236,-0.6084,0.5116,-0.0974,0.0376,0.0105,0.1435,
9.115999,0.1954,0.8119,0.5236,0.2748,0.0137,0.3186,0.0376,0.0105,0.1435,
9.153598,0.1954,0.8119,0.5236,-0.2602,-0.3235,-0.4125,0.0376,0.0105,0.1435,
9.192742,0.1890,0.7936,0.5492,-0.2602,-0.3235,-0.4125,0.0376,0.0105,0.1435,
9.193943,0.1890,0.7936,0.5492,-0.2602,-0.3235,-0.4125,-0.0387,0.0301,0.1235,
9.194590,0.1890,0.7936,0.5492,-0.2211,-0.0877,0.2542,-0.0387,0.0301,0.1235,
9.231246,0.1890,0.7936,0.5492,-0.2824,-0.7417,-0.2798,-0.0387,0.0301,0.1235,
9.270253,0.2555,0.8803,0.5950,-0.2824,-0.7417,-0.2798,-0.0387,0.0301,0.1235,
9.270972,0.2555,0.8803,0.5950,0.0455,0.2632,0.2034,-0.0387,0.0301,0.1235,
9.271403,0.2555,0.8803,0.5950,0.0455,0.2632,0.2034,-0.0827,-0.0408,0.4277,
9.309542,0.3803,1.4459,0.7273,0.0455,0.2632,0.2034,-0.0827,-0.0408,0.4277,
9.310476,0.3803,1.4459,0.7273,0.8356,3.3338,2.2540,-0.0827,-0.0408,0.4277,
9.348286,0.3803,1.4459,0.7273,0.8356,3.3338,2.2540,0.1445,-0.1159,0.3307,
9.349009,0.3803,1.4459,0.7273,1.2395,6.5697,1.6611,0.1445,-0.1159,0.3307,
9.387461,0.3803,1.4459,0.7273,1.2395,6.5697,1.6611,0.3765,-0.0660,0.2708,
9.388329,0.6652,1.9173,1.0107,1.2395,6.5697,1.6611,0.3765,-0.0660,0.2708,
9.388825,0.6652,1.9173,1.0107,3.7787,9.8993,4.6123,0.3765,-0.0660,0.2708,
9.426427,0.6652,1.9173,1.0107,3.4161,10.4525,4.9362,0.3765,-0.0660,0.2708,
9.467548,0.6652,1.9173,1.0107,3.4161,10.4525,4.9362,1.3646,-0.5899,0.6751,
9.468685,0.5366,1.6827,1.0481,3.4161,10.4525,4.9362,1.3646,-0.5899,0.6751,
9.469404,0.5366,1.6827,1.0481,2.4310,8.0987,6.3968,1.3646,-0.5899,0.6751,
9.504867,0.2843,1.2109,0.8896,2.4310,8.0987,6.3968,1.3646,-0.5899,0.6751,
9.505938,0.2843,1.2109,0.8896,-0.9166,4.9138,4.9990,1.3646,-0.5899,0.6751,
9.545712,0.2843,1.2109,0.8896,-1.7699,2.2873,5.9786,1.3646,-0.5899,0.6751,
9.547379,0.2843,1.2109,0.8896,-1.7699,2.2873,5.9786,2.0993,-0.9810,0.9510,
9.584018,0.2091,0.7179,0.6353,-1.7699,2.2873,5.9786,2.0993,-0.9810,0.9510,
9.585301,0.2091,0.7179,0.6353,-1.7699,2.2873,5.9786,2.2447,-1.3000,1.2975,
9.586290,0.2091,0.7179,0.6353,-3.0093,-0.0221,5.6131,2.2447,-1.3000,1.2975,
9.623067,0.2091,0.7179,0.6353,-3.3164,-3.4753,4.9321,2.2447,-1.3000,1.2975,
9.662669,0.0439,0.2013,0.2101,-3.3164,-3.4753,4.9321,2.2447,-1.3000,1.2975,
9.664034,0.0439,0.2013,0.2101,-3.3164,-3.4753,4.9321,2.4807,-1.0799,0.2310,
9.664936,0.0439,0.2013,0.2101,-4.4942,-6.8850,3.5547,2.4807,-1.0799,0.2310,
9.701389,0.0439,0.2013,0.2101,-5.2592,-7.6699,1.3766,2.4807,-1.0799,0.2310,
9.740775,0.0439,0.2013,0.2101,-5.2592,-7.6699,1.3766,1.9760,-0.9544,0.1405,
9.742006,0.0439,0.2013,0.2101,-4.9171,-9.2070,1.2868,1.9760,-0.9544,0.1405,
9.742916,0.0200,-0.0710,-0.0992,-4.9171,-9.2070,1.2868,1.9760,-0.9544,0.1405,
9.779435,-0.0845,-0.2174,-0.5424,-4.9171,-9.2070,1.2868,1.9760,-0.9544,0.1405,
9.780717,-0.0845,-0.2174,-0.5424,-5.3562,-10.5348,-0.2166,1.9760,-0.9544,0.1405,
9.817271,-0.0845,-0.2174,-0.5424,-5.3562,-10.5348,-0.2166,1.6962,-0.9298,0.5551,
9.819842,-0.0845,-0.2174,-0.5424,-6.0182,-9.9811,-2.6585,1.6962,-0.9298,0.5551,
9.858383,-0.0845,-0.2174,-0.5424,-6.0182,-9.9811,-2.6585,0.5162,0.1232,-0.4480,
9.859705,0.0325,0.0532,-0.4866,-6.0182,-9.9811,-2.6585,0.5162,0.1232,-0.4480,
9.860644,0.0325,0.0532,-0.4866,-5.0637,-7.5966,-1.3513,0.5162,0.1232,-0.4480,
9.896867,0.0325,0.0532,-0.4866,-3.6271,-7.0292,-1.4475,0.5162,0.1232,-0.4480,
9.936175,0.0908,0.0233,-0.4794,-3.6271,-7.0292,-1.4475,0.5162,0.1232,-0.4480,
9.937998,0.0908,0.0233,-0.4794,-3.6271,-7.0292,-1.4475,0.2472,0.4610,-0.6794,
9.939112,0.0908,0.0233,-0.4794,-3.3278,-7.6365,-1.4723,0.2472,0.4610,-0.6794,
9.974435,-0.1881,0.3595,-0.3695,-3.3278,-7.6365,-1.4723,0.2472,0.4610,-0.6794,
9.975729,-0.1881,0.3595,-0.3695,-4.0025,-7.2053,-0.9859,0.2472,0.4610,-0.6794,
10.012773,-0.1881,0.3595,-0.3695,-4.0025,-7.2053,-0.9859,-0.5531,0.6806,-0.3199,
10.014248,-0.1881,0.3595,-0.3695,-6.2225,-4.0634,-0.8260,-0.5531,0.6806,-0.3199,
10.053274,-0.1881,0.3595,-0.3695,-6.2225,-4.0634,-0.8260,-0.8117,1.0555,-0.3125,
10.055513,-0.1881,0.3595,-0.3695,-4.4998,-3.2420,1.4332,-0.8117,1.0555,-0.3125,
10.056506,-0.0537,0.5692,-0.0815,-4.4998,-3.2420,1.4332,-0.8117,1.0555,-0.3125,
10.091362,-0.0537,0.5692,-0.0815,-4.6154,-1.9583,0.9215,-0.8117,1.0555,-0.3125,
10.131271,-0.0537,0.5692,-0.0815,-4.6154,-1.9583,0.9215,-1.3779,1.6785,-0.4760,
10.132516,0.1912,0.7429,0.2589,-4.6154,-1.9583,0.9215,-1.3779,1.6785,-0.4760,
10.133400,0.1912,0.7429,0.2589,-1.9893,-1.2995,3.3244,-1.3779,1.6785,-0.4760,
10.167617,0.1912,0.7429,0.2589,-2.0100,-0.2341,2.7553,-1.3779,1.6785,-0.4760,
10.208133,0.1912,0.7429,0.2589,-2.0100,-0.2341,2.7553,-1.4581,2.0237,-0.3209,
10.209502,0.4841,0.8921,0.5579,-2.0100,-0.2341,2.7553,-1.4581,2.0237,-0.3209,
10.210366,0.4841,0.8921,0.5579,0.9893,0.4319,4.6724,-1.4581,2.0237,-0.3209,
10.247184,0.7170,1.0413,0.6397,0.9893,0.4319,4.6724,-1.4581,2.0237,-0.3209,
10.248365,0.7170,1.0413,0.6397,1.1184,1.3261,2.6985,-1.4581,2.0237,-0.3209,
10.285220,0.7170,1.0413,0.6397,1.1184,1.3261,2.6985,-1.6668,1.8869,0.0651,
10.286344,0.7170,1.0413,0.6397,4.0661,2.3568,4.2424,-1.6668,1.8869,0.0651,
10.325029,0.7170,1.0413,0.6397,4.0661,2.3568,4.2424,-1.6365,1.5009,0.2300,
10.326505,0.7170,1.0413,0.6397,4.3196,4.1557,4.8867,-1.6365,1.5009,0.2300,
10.327472,0.8096,1.2393,0.8119,4.3196,4.1557,4.8867,-1.6365,1.5009,0.2300,
10.365145,0.8096,1.2393,0.8119,4.3005,4.4224,3.5963,-1.6365,1.5009,0.2300,
10.406092,0.8096,1.2393,0.8119,3.8323,4.8762,3.6273,-1.6365,1.5009,0.2300,
10.408166,0.8096,1.2393,0.8119,3.8323,4.8762,3.6273,-1.1892,1.1786,0.0418,
10.409729,0.7697,1.3093,0.8338,3.8323,4.8762,3.6273,-1.1892,1.1786,0.0418,
10.442468,0.8907,1.4347,0.8196,3.8323,4.8762,3.6273,-1.1892,1.1786,0.0418,
10.443985,0.8907,1.4347,0.8196,5.2374,6.3497,3.2381,-1.1892,1.1786,0.0418,
10.481094,0.8907,1.4347,0.8196,5.2374,6.3497,3.2381,-0.6708,0.9089,0.3378,
10.482464,0.8907,1.4347,0.8196,5.1913,6.4116,2.8790,-0.6708,0.9089,0.3378,
10.520246,0.8907,1.4347,0.8196,5.1913,6.4116,2.8790,0.1214,0.4307,0.3641,
10.521556,1.0659,1.5735,0.8588,5.1913,6.4116,2.8790,0.1214,0.4307,0.3641,
10.522594,1.0659,1.5735,0.8588,6.2408,6.3040,2.9432,0.1214,0.4307,0.3641,
10.559345,1.0659,1.5735,0.8588,6.9027,8.4066,3.5121,0.1214,0.4307,0.3641,
10.598319,1.0659,1.5735,0.8588,7.1777,8.1638,5.4069,0.1214,0.4307,0.3641,
10.599578,1.1397,1.6448,1.0056,7.1777,8.1638,5.4069,0.1214,0.4307,0.3641,
10.600385,1.1397,1.6448,1.0056,7.1777,8.1638,5.4069,0.8274,-0.2487,0.3665,
10.635561,1.1397,1.6448,1.0056,6.0235,6.9606,4.9079,0.8274,-0.2487,0.3665,
10.674329,0.9638,1.4375,1.0238,6.0235,6.9606,4.9079,0.8274,-0.2487,0.3665,
10.675521,0.9638,1.4375,1.0238,4.4746,5.2705,6.6368,0.8274,-0.2487,0.3665,
10.676299,0.9638,1.4375,1.0238,4.4746,5.2705,6.6368,1.6675,-1.0170,0.4088,
10.713347,0.9638,1.4375,1.0238,4.4746,5.2705,6.6368,2.1241,-1.4965,0.4086,
10.714575,0.6131,1.0616,0.8718,4.4746,5.2705,6.6368,2.1241,-1.4965,0.4086,
10.715350,0.6131,1.0616,0.8718,1.6117,3.3129,5.9352,2.1241,-1.4965,0.4086,
10.752603,0.6131,1.0616,0.8718,0.0371,0.5109,7.1175,2.1241,-1.4965,0.4086,
10.791266,0.6131,1.0616,0.8718,0.0371,0.5109,7.1175,2.1515,-1.4965,0.0708,
10.792371,0.1679,0.5611,0.5659,0.0371,0.5109,7.1175,2.1515,-1.4965,0.0708,
10.793122,0.1679,0.5611,0.5659,-3.1470,-2.8053,5.5766,2.1515,-1.4965,0.0708,
10.830881,0.1679,0.5611,0.5659,-4.7389,-4.8566,5.2684,2.1515,-1.4965,0.0708,
10.869814,0.1679,0.5611,0.5659,-4.7389,-4.8566,5.2684,2.1729,-1.0778,-0.2695,
10.870928,0.1679,0.5611,0.5659,-4.4367,-7.1475,4.3955,2.1729,-1.0778,-0.2695,
10.871716,0.0740,0.1458,0.2621,-4.4367,-7.1475,4.3955,2.1729,-1.0778,-0.2695,
10.908464,0.2050,-0.2988,-0.1944,-4.4367,-7.1475,4.3955,2.1729,-1.0778,-0.2695,
10.909643,0.2050,-0.2988,-0.1944,-4.9266,-9.6313,2.3170,2.1729,-1.0778,-0.2695,
10.948729,0.2050,-0.2988,-0.1944,-4.9266,-9.6313,2.3170,2.2106,-1.0117,0.7583,
10.950423,0.2050,-0.2988,-0.1944,-3.1826,-11.1913,0.8615,2.2106,-1.0117,0.7583,
10.987660,0.2050,-0.2988,-0.1944,-3.1826,-11.1913,0.8615,1.1117,-0.7891,0.4529,
10.989265,0.3021,-0.5914,-0.4564,-3.1826,-11.1913,0.8615,1.1117,-0.7891,0.4529,
10.990203,0.3021,-0.5914,-0.4564,-2.3818,-12.7544,-0.3679,1.1117,-0.7891,0.4529,
11.026224,0.3021,-0.5914,-0.4564,-2.3334,-13.5611,-1.1000,1.1117,-0.7891,0.4529,
11.065945,0.3021,-0.5914,-0.4564,-2.3334,-13.5611,-1.1000,-0.0916,-0.5663,-0.3541,
11.067679,0.3021,-0.5914,-0.4564,-2.5897,-12.0066,-2.0013,-0.0916,-0.5663,-0.3541,
11.068762,0.2856,-0.4416,-0.5207,-2.5897,-12.0066,-2.0013,-0.0916,-0.5663,-0.3541,
11.104553,0.2856,-0.4416,-0.5207,-0.9111,-10.5600,0.3297,-0.0916,-0.5663,-0.3541,
11.106277,0.3575,-0.0576,-0.2070,-0.9111,-10.5600,0.3297,-0.0916,-0.5663,-0.3541,
11.143439,0.3575,-0.0576,-0.2070,-0.9111,-10.5600,0.3297,-1.3216,-0.6977,-0.3661,
11.144992,0.3575,-0.0576,-0.2070,-0.9846,-8.0444,1.1906,-1.3216,-0.6977,-0.3661,
11.182207,0.3575,-0.0576,-0.2070,-0.9846,-8.0444,1.1906,-2.0234,-0.6191,-1.1482,
11.183478,0.2057,0.3112,0.1041,-0.9846,-8.0444,1.1906,-2.0234,-0.6191,-1.1482,
11.184246,0.2057,0.3112,0.1041,-1.2421,-5.8424,2.5893,-2.0234,-0.6191,-1.1482,
11.222361,0.2057,0.3112,0.1041,-1.7592,-4.6935,3.5298,-2.0234,-0.6191,-1.1482,
11.260069,0.2057,0.3112,0.1041,-1.7592,-4.6935,3.5298,-2.2886,-0.7188,-1.4124,
11.260892,0.0032,0.8182,0.2063,-1.7592,-4.6935,3.5298,-2.2886,-0.7188,-1.4124,
11.261332,0.0032,0.8182,0.2063,-3.3275,-1.5816,2.4017,-2.2886,-0.7188,-1.4124,
11.300637,0.0032,0.8182,0.2063,-1.8655,0.9572,3.8227,-2.2886,-0.7188,-1.4124,
11.339996,0.0032,0.8182,0.2063,-1.8655,0.9572,3.8227,-2.5567,-0.8022,-0.8433,
11.341531,0.0366,1.3372,0.4351,-1.8655,0.9572,3.8227,-2.5567,-0.8022,-0.8433,
11.342603,0.0366,1.3372,0.4351,-1.8702,4.0507,3.9054,-2.5567,-0.8022,-0.8433,
11.377655,-0.1050,1.5795,0.5371,-1.8702,4.0507,3.9054,-2.5567,-0.8022,-0.8433,
11.379633,-0.1050,1.5795,0.5371,-1.4673,5.7122,2.9672,-2.5567,-0.8022,-0.8433,
11.418105,-0.1050,1.5795,0.5371,-1.4673,5.7122,2.9672,-2.1274,-0.8014,-1.1879,
11.419206,-0.1050,1.5795,0.5371,-2.6432,6.5744,3.7135,-2.1274,-0.8014,-1.1879,
11.454697,-0.1050,1.5795,0.5371,-2.6432,6.5744,3.7135,-1.6049,-0.5893,-1.3038,
11.455369,-0.2756,1.5912,0.5065,-2.6432,6.5744,3.7135,-1.6049,-0.5893,-1.3038,
11.455664,-0.2756,1.5912,0.5065,-3.8387,6.6951,2.0928,-1.6049,-0.5893,-1.3038,
11.495379,-0.2756,1.5912,0.5065,-2.9059,6.2595,2.6248,-1.6049,-0.5893,-1.3038,
11.535315,-0.2756,1.5912,0.5065,-3.2527,5.6674,0.4407,-1.6049,-0.5893,-1.3038,
11.536824,-0.2981,1.5153,0.3992,-3.2527,5.6674,0.4407,-1.6049,-0.5893,-1.3038,
11.537714,-0.2981,1.5153,0.3992,-3.2527,5.6674,0.4407,-0.9957,-0.3558,-1.0252,
11.572849,-0.2344,1.2967,0.3293,-3.2527,5.6674,0.4407,-0.9957,-0.3558,-1.0252,
11.574199,-0.2344,1.2967,0.3293,-2.1123,5.7689,1.7641,-0.9957,-0.3558,-1.0252,
11.612047,-0.2344,1.2967,0.3293,-2.1123,5.7689,1.7641,-0.4977,-0.2132,-0.4000,
11.613345,-0.2344,1.2967,0.3293,-2.1068,3.3839,-0.2530,-0.4977,-0.2132,-0.4000,
11.650447,-0.2344,1.2967,0.3293,-2.1068,3.3839,-0.2530,-0.2086,-0.0728,-0.2241,
11.651651,-0.2344,1.2967,0.3293,-1.1805,2.8606,0.5422,-0.2086,-0.0728,-0.2241,
11.652345,-0.1639,1.1415,0.3762,-1.1805,2.8606,0.5422,-0.2086,-0.0728,-0.2241,
11.689410,-0.1639,1.1415,0.3762,-1.3407,1.4725,0.0444,-0.2086,-0.0728,-0.2241,
11.728033,-0.0774,0.9974,0.3573,-1.3407,1.4725,0.0444,-0.2086,-0.0728,-0.2241,
11.729101,-0.0774,0.9974,0.3573,-1.3407,1.4725,0.0444,-0.0631,0.0285,-0.0146,
11.729699,-0.0774,0.9974,0.3573,-0.5118,0.4508,-0.1012,-0.0631,0.0285,-0.0146,
11.767754,-0.0774,0.9974,0.3573,-0.2268,0.6571,0.1225,-0.0631,0.0285,-0.0146,
11.806568,-0.0497,0.9741,0.3803,-0.2268,0.6571,0.1225,-0.0631,0.0285,-0.0146,
11.808438,-0.0497,0.9741,0.3803,-0.2268,0.6571,0.1225,-0.0642,0.0110,-0.0082,
11.809644,-0.0497,0.9741,0.3803,-0.1617,0.3227,0.1994,-0.0642,0.0110,-0.0082,
11.845562,-0.0503,0.9696,0.3783,-0.1617,0.3227,0.1994,-0.0642,0.0110,-0.0082,
11.847188,-0.0503,0.9696,0.3783,-0.0053,0.0162,-0.1532,-0.0642,0.0110,-0.0082,
11.884967,-0.0503,0.9696,0.3783,-0.0053,0.0162,-0.1532,-0.0635,-0.0067,0.0982,
11.886291,-0.0503,0.9696,0.3783,-0.2901,0.3309,0.1713,-0.0635,-0.0067,0.0982,
11.925072,-0.0503,0.9696,0.3783,-0.2901,0.3309,0.1713,-0.0093,0.0353,0.0383,
11.926444,-0.0503,0.9696,0.3783,0.1365,0.8503,0.5872,-0.0093,0.0353,0.0383,
11.927209,-0.0241,0.9816,0.3952,0.1365,0.8503,0.5872,-0.0093,0.0353,0.0383,
11.962688,-0.0241,0.9816,0.3952,-0.1287,-0.1218,-0.0464,-0.0093,0.0353,0.0383,
12.002400,-0.0241,0.9816,0.3952,-0.1287,-0.1218,-0.0464,0.0114,0.0031,0.1344,
12.003647,-0.0241,0.9816,0.3952,0.0282,-0.0044,0.2355,0.0114,0.0031,0.1344,
12.004453,-0.0198,0.9565,0.3903,0.0282,-0.0044,0.2355,0.0114,0.0031,0.1344,
12.040858,-0.0198,0.9565,0.3903,-0.2477,0.5113,0.1182,0.0114,0.0031,0.1344,
12.042177,-0.0172,1.0281,0.3991,-0.2477,0.5113,0.1182,0.0114,0.0031,0.1344,
12.079835,-0.0172,1.0281,0.3991,-0.2477,0.5113,0.1182,0.0176,0.0300,0.0577,
12.081073,-0.0172,1.0281,0.3991,-0.0125,0.7560,0.3125,0.0176,0.0300,0.0577,
12.119667,-0.0172,1.0281,0.3991,-0.0125,0.7560,0.3125,0.0260,0.0443,-0.1065,
12.120962,-0.0329,1.4399,0.4038,-0.0125,0.7560,0.3125,0.0260,0.0443,-0.1065,
12.121866,-0.0329,1.4399,0.4038,-0.1330,1.7367,0.3800,0.0260,0.0443,-0.1065,
12.157041,-0.0329,1.4399,0.4038,-0.0309,6.4256,0.2436,0.0260,0.0443,-0.1065,
12.196123,-0.0329,1.4399,0.4038,-0.0309,6.4256,0.2436,0.1307,-0.2094,-0.0959,
12.197278,-0.0052,2.2719,0.6798,-0.0309,6.4256,0.2436,0.1307,-0.2094,-0.0959,
12.198141,-0.0052,2.2719,0.6798,1.7900,13.1110,2.8599,0.1307,-0.2094,-0.0959,
12.235179,-0.0052,2.2719,0.6798,-2.6304,11.0675,3.9430,0.1307,-0.2094,-0.0959,
12.274071,-0.4189,1.8637,0.6289,-2.6304,11.0675,3.9430,0.1307,-0.2094,-0.0959,
12.275613,-0.4189,1.8637,0.6289,-3.4728,7.9362,3.6470,0.1307,-0.2094,-0.0959,
12.276567,-0.4189,1.8637,0.6289,-3.4728,7.9362,3.6470,1.5645,0.1936,-0.6560,
12.313972,0.0529,1.4502,0.8204,-3.4728,7.9362,3.6470,1.5645,0.1936,-0.6560,
12.315174,0.0529,1.4502,0.8204,-1.9952,6.1757,4.8097,1.5645,0.1936,-0.6560,
12.352705,0.0529,1.4502,0.8204,-1.9952,6.1757,4.8097,1.7308,-0.0104,2.2618,
12.354173,0.0529,1.4502,0.8204,0.1525,2.5868,7.4614,1.7308,-0.0104,2.2618,
12.392680,0.0529,1.4502,0.8204,0.1525,2.5868,7.4614,2.6683,-0.3405,1.4388,
12.394049,0.1108,0.6632,0.5138,0.1525,2.5868,7.4614,2.6683,-0.3405,1.4388,
12.394952,0.1108,0.6632,0.5138,0.2214,-1.7768,6.6779,2.6683,-0.3405,1.4388,
12.431345,0.1108,0.6632,0.5138,-1.2539,-6.8645,4.3859,2.6683,-0.3405,1.4388,
12.470561,0.1108,0.6632,0.5138,-1.2539,-6.8645,4.3859,2.2568,-0.0867,-0.4293,
12.471922,0.1108,0.6632,0.5138,-2.3456,-10.1171,2.3045,2.2568,-0.0867,-0.4293,
12.473304,-0.1347,0.0132,0.0392,-2.3456,-10.1171,2.3045,2.2568,-0.0867,-0.4293,
12.509194,-0.1347,0.0132,0.0392,-2.6260,-10.4225,1.9989,2.2568,-0.0867,-0.4293,
12.511800,-0.1863,-0.1332,-0.1769,-2.6260,-10.4225,1.9989,2.2568,-0.0867,-0.4293,
12.547615,-0.1863,-0.1332,-0.1769,-2.6260,-10.4225,1.9989,1.1724,0.2663,-0.8912,
12.549135,-0.1863,-0.1332,-0.1769,-2.2839,-11.2326,0.8068,1.1724,0.2663,-0.8912,
12.587156,-0.1863,-0.1332,-0.1769,-2.2839,-11.2326,0.8068,1.2722,0.3509,-0.4348,
12.588916,-0.2948,-0.3605,-0.5013,-2.2839,-11.2326,0.8068,1.2722,0.3509,-0.4348,
12.590195,-0.2948,-0.3605,-0.5013,-3.0836,-13.1550,-0.9298,1.2722,0.3509,-0.4348,
12.625521,-0.2948,-0.3605,-0.5013,-3.0744,-12.5494,-1.9122,1.2722,0.3509,-0.4348,
12.665442,-0.2948,-0.3605,-0.5013,-3.0744,-12.5494,-1.9122,0.4610,0.7499,-0.7888,
12.666879,-0.2690,-0.2253,-0.4969,-3.0744,-12.5494,-1.9122,0.4610,0.7499,-0.7888,
12.667846,-0.2690,-0.2253,-0.4969,-2.4245,-11.4241,-1.5357,0.4610,0.7499,-0.7888,
12.703766,-0.2690,-0.2253,-0.4969,-2.1134,-10.2616,-0.6379,0.4610,0.7499,-0.7888,
12.743249,-0.2690,-0.2253,-0.4969,-2.1134,-10.2616,-0.6379,-0.4788,1.1589,-1.8855,
12.744829,-0.2690,-0.2253,-0.4969,-1.5589,-6.7547,0.8727,-0.4788,1.1589,-1.8855,
12.745935,-0.2729,0.1961,-0.2373,-1.5589,-6.7547,0.8727,-0.4788,1.1589,-1.8855,
12.781199,-0.1723,0.2292,-0.1007,-1.5589,-6.7547,0.8727,-0.4788,1.1589,-1.8855,
12.783526,-0.1723,0.2292,-0.1007,-1.5589,-6.7547,0.8727,-1.1364,0.7239,-0.7688,
12.785038,-0.1723,0.2292,-0.1007,0.8625,-8.6294,1.7916,-1.1364,0.7239,-0.7688,
12.821116,-0.1723,0.2292,-0.1007,-0.7639,-5.6905,1.1169,-1.1364,0.7239,-0.7688,
12.860435,-0.0628,0.7988,0.3901,-0.7639,-5.6905,1.1169,-1.1364,0.7239,-0.7688,
12.861960,-0.0628,0.7988,0.3901,1.1395,-2.0379,4.6266,-1.1364,0.7239,-0.7688,
12.862906,-0.0628,0.7988,0.3901,1.1395,-2.0379,4.6266,-2.4858,0.6167,-0.4952,
12.898963,-0.0628,0.7988,0.3901,0.4807,0.1601,4.5019,-2.4858,0.6167,-0.4952,
12.938874,-0.0173,1.1762,0.4801,0.4807,0.1601,4.5019,-2.4858,0.6167,-0.4952,
12.940219,-0.0173,1.1762,0.4801,0.4807,0.1601,4.5019,-2.6000,0.6659,0.0679,
12.941053,-0.0173,1.1762,0.4801,1.1938,2.1136,3.4387,-2.6000,0.6659,0.0679,
12.976126,-0.1093,1.7807,0.8092,1.1938,2.1136,3.4387,-2.6000,0.6659,0.0679,
12.977328,-0.1093,1.7807,0.8092,2.0231,5.3217,5.8868,-2.6000,0.6659,0.0679,
13.015133,-0.1093,1.7807,0.8092,2.0231,5.3217,5.8868,-2.9851,0.6092,-0.4930,
13.016288,-0.1093,1.7807,0.8092,0.5462,9.2261,5.2259,-2.9851,0.6092,-0.4930,
13.054409,-0.2289,1.9073,0.6849,0.5462,9.2261,5.2259,-2.9851,0.6092,-0.4930,
13.055705,-0.2289,1.9073,0.6849,0.5462,9.2261,5.2259,-1.8608,0.4382,-0.1519,
13.056588,-0.2289,1.9073,0.6849,-0.8097,8.9344,4.0978,-1.8608,0.4382,-0.1519,
13.093657,-0.2289,1.9073,0.6849,-0.0794,10.7505,2.2769,-1.8608,0.4382,-0.1519,
13.132760,0.0234,2.1232,0.8493,-0.0794,10.7505,2.2769,-1.8608,0.4382,-0.1519,
13.134305,0.0234,2.1232,0.8493,-0.0794,10.7505,2.2769,-1.1199,0.3553,0.8181,
13.135114,0.0234,2.1232,0.8493,1.8261,11.2479,4.0175,-1.1199,0.3553,0.8181,
13.172232,-0.1360,2.9667,0.7631,1.8261,11.2479,4.0175,-1.1199,0.3553,0.8181,
13.173589,-0.1360,2.9667,0.7631,1.2246,13.5317,4.3384,-1.1199,0.3553,0.8181,
13.210230,-0.1360,2.9667,0.7631,-0.2674,19.6418,3.2435,-1.1199,0.3553,0.8181,
13.211692,-0.1360,2.9667,0.7631,-0.2674,19.6418,3.2435,-0.0040,0.2218,0.5689,
13.250514,-0.1838,2.1345,1.0637,-0.2674,19.6418,3.2435,-0.0040,0.2218,0.5689,
13.251874,-0.1838,2.1345,1.0637,0.3247,16.4767,9.5490,-0.0040,0.2218,0.5689,
13.252772,-0.1838,2.1345,1.0637,0.3247,16.4767,9.5490,1.7769,0.1734,0.4926,
13.289063,-0.1838,2.1345,1.0637,-1.6230,7.8547,6.5233,1.7769,0.1734,0.4926,
13.327916,-0.1838,2.1345,1.0637,-1.6230,7.8547,6.5233,2.5301,0.2331,1.2642,
13.329246,0.0022,1.1004,0.8252,-1.6230,7.8547,6.5233,2.5301,0.2331,1.2642,
13.330146,0.0022,1.1004,0.8252,0.3864,-0.2419,6.3999,2.5301,0.2331,1.2642,
13.366730,0.0022,1.1004,0.8252,-0.8466,0.1715,7.0524,2.5301,0.2331,1.2642,
13.406689,0.0022,1.1004,0.8252,-0.8466,0.1715,7.0524,2.5491,-0.0547,1.2208,
13.408190,0.1651,0.3826,0.7563,-0.8466,0.1715,7.0524,2.5491,-0.0547,1.2208,
13.409167,0.1651,0.3826,0.7563,0.6913,-6.2088,8.3520,2.5491,-0.0547,1.2208,
13.444790,0.2082,-0.2349,-0.1052,0.6913,-6.2088,8.3520,2.5491,-0.0547,1.2208,
13.446351,0.2082,-0.2349,-0.1052,-0.1682,-13.2765,3.2315,2.5491,-0.0547,1.2208,
13.482885,0.2082,-0.2349,-0.1052,-0.1682,-13.2765,3.2315,2.6444,-0.5284,1.3333,
13.484488,0.2082,-0.2349,-0.1052,0.3879,-12.2962,0.2053,2.6444,-0.5284,1.3333,
13.520675,0.2082,-0.2349,-0.1052,0.3879,-12.2962,0.2053,1.1317,-0.4103,0.1776,
13.521560,0.2082,-0.2349,-0.1052,2.9856,-10.9189,2.9982,1.1317,-0.4103,0.1776,
13.522106,0.4652,-0.2537,-0.1056,2.9856,-10.9189,2.9982,1.1317,-0.4103,0.1776,
13.560270,0.4652,-0.2537,-0.1056,2.5940,-13.1380,0.4103,1.1317,-0.4103,0.1776,
13.598695,0.3649,-0.5803,-0.5797,2.5940,-13.1380,0.4103,1.1317,-0.4103,0.1776,
13.599686,0.3649,-0.5803,-0.5797,2.1723,-14.9293,-2.2110,1.1317,-0.4103,0.1776,
13.600278,0.3649,-0.5803,-0.5797,2.1723,-14.9293,-2.2110,1.3294,-0.8386,-0.2205,
13.638323,0.4444,-0.2484,-0.3729,2.1723,-14.9293,-2.2110,1.3294,-0.8386,-0.2205,
13.640262,0.4444,-0.2484,-0.3729,1.7294,-14.1450,-2.5391,1.3294,-0.8386,-0.2205,
13.677216,0.4444,-0.2484,-0.3729,1.7294,-14.1450,-2.5391,-0.7529,-1.0803,-0.0517,
13.678691,0.4444,-0.2484,-0.3729,2.9930,-11.2131,-0.7137,-0.7529,-1.0803,-0.0517,
13.716466,0.4444,-0.2484,-0.3729,2.9930,-11.2131,-0.7137,-1.8180,-1.3099,0.1339,
13.717977,0.4444,-0.2484,-0.3729,2.9179,-8.0072,1.9526,-1.8180,-1.3099,0.1339,
13.718828,0.2557,0.1979,0.0973,2.9179,-8.0072,1.9526,-1.8180,-1.3099,0.1339,
13.755961,0.2557,0.1979,0.0973,0.3340,-6.5259,3.2565,-1.8180,-1.3099,0.1339,
13.793888,-0.0016,0.6057,0.2539,0.3340,-6.5259,3.2565,-1.8180,-1.3099,0.1339,
13.795086,-0.0016,0.6057,0.2539,0.3340,-6.5259,3.2565,-1.6764,-1.2846,0.0928,
13.795842,-0.0016,0.6057,0.2539,-1.0979,-4.3809,2.7557,-1.6764,-1.2846,0.0928,
13.832894,-0.0016,0.6057,0.2539,-1.6187,-0.8289,4.1837,-1.6764,-1.2846,0.0928,
13.872568,-0.0016,0.6057,0.2539,-1.6187,-0.8289,4.1837,-2.1580,-1.1181,0.3645,
13.874088,-0.0840,1.0264,0.5550,-1.6187,-0.8289,4.1837,-2.1580,-1.1181,0.3645,
13.875009,-0.0840,1.0264,0.5550,-2.0226,0.7693,4.9675,-2.1580,-1.1181,0.3645,
13.911711,-0.2482,1.3114,0.6611,-2.0226,0.7693,4.9675,-2.1580,-1.1181,0.3645,
13.912945,-0.2482,1.3114,0.6611,-3.7631,4.1358,4.2389,-2.1580,-1.1181,0.3645,
13.949920,-0.2482,1.3114,0.6611,-3.7631,4.1358,4.2389,-2.2126,-0.6721,-0.7231,
13.951112,-0.2482,1.3114,0.6611,-3.1454,3.7728,4.6417,-2.2126,-0.6721,-0.7231,
13.989300,-0.2482,1.3114,0.6611,-3.1454,3.7728,4.6417,-2.1754,-0.7353,-0.8579,
13.990644,-0.4645,1.6157,0.6502,-3.1454,3.7728,4.6417,-2.1754,-0.7353,-0.8579,
13.991376,-0.4645,1.6157,0.6502,-4.2436,7.6834,4.0955,-2.1754,-0.7353,-0.8579,
14.028477,-0.4645,1.6157,0.6502,-5.3374,6.1469,2.4016,-2.1754,-0.7353,-0.8579,
14.067499,-0.4645,1.6157,0.6502,-5.3374,6.1469,2.4016,-1.2361,-0.3687,-0.8342,
14.068670,-0.3870,1.5676,0.6195,-5.3374,6.1469,2.4016,-1.2361,-0.3687,-0.8342,
14.069397,-0.3870,1.5676,0.6195,-3.9304,7.1157,2.5697,-1.2361,-0.3687,-0.8342,
14.106140,-0.1907,1.4015,0.5660,-3.9304,7.1157,2.5697,-1.2361,-0.3687,-0.8342,
14.107440,-0.1907,1.4015,0.5660,-2.5148,4.2882,0.7839,-1.2361,-0.3687,-0.8342,
14.144634,-0.1907,1.4015,0.5660,-2.5148,4.2882,0.7839,-0.7237,-0.1773,-0.2039,
14.145856,-0.1907,1.4015,0.5660,-1.4762,5.0252,1.2128,-0.7237,-0.1773,-0.2039,
14.183418,-0.1907,1.4015,0.5660,-1.4762,5.0252,1.2128,-0.2714,-0.0420,-0.3300,
14.184069,-0.1758,1.2432,0.4845,-1.4762,5.0252,1.2128,-0.2714,-0.0420,-0.3300,
14.184390,-0.1758,1.2432,0.4845,-1.1082,4.3327,1.0805,-0.2714,-0.0420,-0.3300,
14.222602,-0.1758,1.2432,0.4845,-1.3684,2.8214,-0.2639,-0.2714,-0.0420,-0.3300,
14.261868,-0.0962,1.0826,0.5140,-1.3684,2.8214,-0.2639,-0.2714,-0.0420,-0.3300,
14.263109,-0.0962,1.0826,0.5140,-0.5112,2.0824,0.6825,-0.2714,-0.0420,-0.3300,
14.263745,-0.0962,1.0826,0.5140,-0.5112,2.0824,0.6825,-0.1499,-0.0359,0.1076,
14.300712,-0.0962,1.0826,0.5140,-0.5814,1.1788,-0.0085,-0.1499,-0.0359,0.1076,
14.339736,-0.0962,1.0826,0.5140,-0.5814,1.1788,-0.0085,0.0165,-0.0362,0.0009,
14.340697,-0.1007,0.9626,0.4451,-0.5814,1.1788,-0.0085,0.0165,-0.0362,0.0009,
14.341330,-0.1007,0.9626,0.4451,-0.6124,0.5722,-0.2433,0.0165,-0.0362,0.0009,
14.378458,-0.1007,0.9626,0.4451,-0.3630,0.5707,0.1489,0.0165,-0.0362,0.0009,
14.379565,-0.0595,0.9079,0.4521,-0.3630,0.5707,0.1489,0.0165,-0.0362,0.0009,
14.417345,-0.0595,0.9079,0.4521,-0.3630,0.5707,0.1489,0.0554,-0.0009,0.0766,
14.418271,-0.0595,0.9079,0.4521,-0.1552,-0.1695,-0.1952,0.0554,-0.0009,0.0766,
14.456830,-0.0595,0.9079,0.4521,-0.1552,-0.1695,-0.1952,0.0602,-0.0113,0.0757,
14.457651,-0.0952,0.9142,0.4512,-0.1552,-0.1695,-0.1952,0.0602,-0.0113,0.0757,
14.458197,-0.0952,0.9142,0.4512,-0.7223,0.0256,-0.0552,0.0602,-0.0113,0.0757,
14.495731,-0.0952,0.9142,0.4512,-0.4620,0.0705,-0.1107,0.0602,-0.0113,0.0757,
14.534575,-0.0379,0.8658,0.4454,-0.4620,0.0705,-0.1107,0.0602,-0.0113,0.0757,
14.535337,-0.0379,0.8658,0.4454,-0.0458,-0.5347,-0.1100,0.0602,-0.0113,0.0757,
14.535907,-0.0379,0.8658,0.4454,-0.0458,-0.5347,-0.1100,0.0593,0.0292,0.1121,
14.573528,-0.0525,0.8937,0.4508,-0.0458,-0.5347,-0.1100,0.0593,0.0292,0.1121,
14.574512,-0.0525,0.8937,0.4508,-0.2264,0.0211,-0.1081,0.0593,0.0292,0.1121,
14.612543,-0.0525,0.8937,0.4508,-0.2264,0.0211,-0.1081,-0.0012,0.0521,0.0528,
14.613509,-0.0525,0.8937,0.4508,-0.1972,-0.1684,-0.0320,-0.0012,0.0521,0.0528,
14.651335,-0.0525,0.8937,0.4508,-0.1972,-0.1684,-0.0320,-0.0087,0.0599,-0.0115,
14.651979,-0.0525,0.8937,0.4508,0.0131,-0.4215,-0.1415,-0.0087,0.0599,-0.0115,
14.652269,-0.0442,0.8603,0.4506,0.0131,-0.4215,-0.1415,-0.0087,0.0599,-0.0115,
14.690490,-0.0442,0.8603,0.4506,-0.1671,-0.3570,0.0195,-0.0087,0.0599,-0.0115,
14.729179,-0.0442,0.8603,0.4506,-0.1671,-0.3570,0.0195,-0.0583,0.0562,0.0744,
14.729698,-0.0236,0.9148,0.4811,-0.1671,-0.3570,0.0195,-0.0583,0.0562,0.0744,
14.729972,-0.0236,0.9148,0.4811,0.0653,0.0226,0.2513,-0.0583,0.0562,0.0744,
14.768776,-0.0236,0.9148,0.4811,0.0740,0.4690,0.0537,-0.0583,0.0562,0.0744,
14.807726,-0.0236,0.9148,0.4811,0.0740,0.4690,0.0537,-0.0340,0.0208,0.1229,
14.808916,-0.0339,1.0721,0.5612,0.0740,0.4690,0.0537,-0.0340,0.0208,0.1229,
14.809621,-0.0339,1.0721,0.5612,-0.0991,1.5614,0.9085,-0.0340,0.0208,0.1229,
14.846670,-0.0339,1.0721,0.5612,-0.0991,1.5614,0.9085,0.1546,-0.0939,-0.0585,
14.847790,-0.0339,1.0721,0.5612,-0.1686,5.3931,2.7798,0.1546,-0.0939,-0.0585,
14.848498,0.0098,1.7788,0.7187,-0.1686,5.3931,2.7798,0.1546,-0.0939,-0.0585,
14.885183,0.0098,1.7788,0.7187,0.6870,9.3644,2.4707,0.1546,-0.0939,-0.0585,
14.924672,0.0098,1.7788,0.7187,0.6870,9.3644,2.4707,0.4914,0.0896,-0.6273,
14.925697,0.0098,1.7788,0.7187,-0.3781,14.9186,4.1328,0.4914,0.0896,-0.6273,
14.926445,-0.1377,2.4630,1.0113,-0.3781,14.9186,4.1328,0.4914,0.0896,-0.6273,
14.963319,-0.1377,2.4630,1.0113,-1.1752,13.6859,7.9554,0.4914,0.0896,-0.6273,
15.002690,-0.1377,2.4630,1.0113,-1.1752,13.6859,7.9554,2.0809,-0.2165,0.9190,
15.003497,-0.1156,1.7228,0.9213,-1.1752,13.6859,7.9554,2.0809,-0.2165,0.9190,
15.003916,-0.1156,1.7228,0.9213,-1.5601,7.2215,6.1686,2.0809,-0.2165,0.9190,
15.041364,-0.0811,0.7816,0.7166,-1.5601,7.2215,6.1686,2.0809,-0.2165,0.9190,
15.042242,-0.0811,0.7816,0.7166,-0.2920,1.2829,6.8936,2.0809,-0.2165,0.9190,
15.080208,-0.0811,0.7816,0.7166,-0.2920,1.2829,6.8936,2.6873,-0.2689,0.8766,
15.081110,-0.0811,0.7816,0.7166,-1.4741,-3.8990,5.8340,2.6873,-0.2689,0.8766,
15.119264,-0.0811,0.7816,0.7166,-1.4741,-3.8990,5.8340,2.4082,0.0693,-0.2114,
15.119957,-0.2401,0.1858,0.3469,-1.4741,-3.8990,5.8340,2.4082,0.0693,-0.2114,
15.120373,-0.2401,0.1858,0.3469,-2.7751,-7.5274,4.7166,2.4082,0.0693,-0.2114,
15.160044,-0.2401,0.1858,0.3469,-2.7088,-9.7824,3.3090,2.4082,0.0693,-0.2114,
15.199873,-0.2401,0.1858,0.3469,-2.7088,-9.7824,3.3090,2.1509,-0.0400,0.2393,
15.201266,-0.2401,0.1858,0.3469,-1.7315,-12.8817,1.0763,2.1509,-0.0400,0.2393,
15.202695,-0.1410,-0.3128,-0.1637,-1.7315,-12.8817,1.0763,2.1509,-0.0400,0.2393,
15.238434,-0.2128,-0.5082,-0.4715,-1.7315,-12.8817,1.0763,2.1509,-0.0400,0.2393,
15.239970,-0.2128,-0.5082,-0.4715,-2.1442,-13.9378,-1.7156,2.1509,-0.0400,0.2393,
15.277561,-0.2128,-0.5082,-0.4715,-2.1442,-13.9378,-1.7156,1.3224,0.0618,-0.1297,
15.279090,-0.2128,-0.5082,-0.4715,-2.3090,-14.5214,-1.9151,1.3224,0.0618,-0.1297,
15.316886,-0.2128,-0.5082,-0.4715,-2.3090,-14.5214,-1.9151,0.4503,0.3818,-0.5776,
15.318442,-0.2128,-0.5082,-0.4715,-4.2906,-13.0969,-3.5202,0.4503,0.3818,-0.5776,
15.319282,-0.4139,-0.3207,-0.5617,-4.2906,-13.0969,-3.5202,0.4503,0.3818,-0.5776,
15.356341,-0.4139,-0.3207,-0.5617,-3.8150,-11.9195,-2.1713,0.4503,0.3818,-0.5776,
15.395333,-0.4139,-0.3207,-0.5617,-3.8150,-11.9195,-2.1713,-0.5241,1.0726,-0.2981,
15.396861,-0.1905,-0.1364,-0.3386,-3.8150,-11.9195,-2.1713,-0.5241,1.0726,-0.2981,
15.398074,-0.1905,-0.1364,-0.3386,-1.5115,-10.9972,-1.8307,-0.5241,1.0726,-0.2981,
15.433961,-0.1905,-0.1364,-0.3386,-1.9976,-9.2659,0.6633,-0.5241,1.0726,-0.2981,
15.472375,-0.1905,-0.1364,-0.3386,-1.9976,-9.2659,0.6633,-1.5498,1.3815,-0.7156,
15.474216,-0.1264,0.2635,0.0603,-1.9976,-9.2659,0.6633,-1.5498,1.3815,-0.7156,
15.475294,-0.1264,0.2635,0.0603,-0.6366,-6.4946,1.9642,-1.5498,1.3815,-0.7156,
15.511131,-0.2420,0.6843,0.4887,-0.6366,-6.4946,1.9642,-1.5498,1.3815,-0.7156,
15.512518,-0.2420,0.6843,0.4887,-1.7379,-5.4434,2.6014,-1.5498,1.3815,-0.7156,
15.550256,-0.2420,0.6843,0.4887,-1.6127,-1.5702,5.0997,-1.5498,1.3815,-0.7156,
15.551645,-0.2420,0.6843,0.4887,-1.6127,-1.5702,5.0997,-2.3935,1.3219,-0.3617,
15.589116,-0.2420,0.6843,0.4887,-1.6127,-1.5702,5.0997,-2.6133,1.2793,-0.3696,
15.591343,-0.2420,0.6843,0.4887,-0.9974,1.5373,6.3898,-2.6133,1.2793,-0.3696,
15.592880,-0.1974,1.1632,0.7601,-0.9974,1.5373,6.3898,-2.6133,1.2793,-0.3696,
15.628347,-0.1974,1.1632,0.7601,-0.9922,3.4484,5.1132,-2.6133,1.2793,-0.3696,
15.667978,-0.1974,1.1632,0.7601,-0.9922,3.4484,5.1132,-2.4269,1.1710,0.3606,
15.669285,0.2197,1.6277,0.9827,-0.9922,3.4484,5.1132,-2.4269,1.1710,0.3606,
15.670245,0.2197,1.6277,0.9827,3.1617,6.8398,6.7220,-2.4269,1.1710,0.3606,
15.705368,0.3216,1.7204,0.8680,3.1617,6.8398,6.7220,-2.4269,1.1710,0.3606,
15.706531,0.3216,1.7204,0.8680,2.5480,8.6306,5.5550,-2.4269,1.1710,0.3606,
15.745277,0.3216,1.7204,0.8680,2.5480,8.6306,5.5550,-1.7329,1.0726,0.0930,
15.746556,0.3216,1.7204,0.8680,4.2453,8.3244,4.2559,-1.7329,1.0726,0.0930,
15.783984,0.3216,1.7204,0.8680,4.2453,8.3244,4.2559,-1.2680,0.5288,0.3206,
15.785417,0.3216,1.7204,0.8680,4.0110,11.7613,4.8296,-1.2680,0.5288,0.3206,
15.786408,0.3111,2.1056,0.9544,4.0110,11.7613,4.8296,-1.2680,0.5288,0.3206,
15.822891,0.3111,2.1056,0.9544,3.8468,12.1429,4.4067,-1.2680,0.5288,0.3206,
15.863029,0.3111,2.1056,0.9544,3.8468,12.1429,4.4067,-0.0157,0.2139,0.3386,
15.864325,0.3111,2.1056,0.9544,1.8399,13.8785,4.4128,-0.0157,0.2139,0.3386,
15.865187,0.1486,2.2613,0.9767,1.8399,13.8785,4.4128,-0.0157,0.2139,0.3386,
15.901101,0.1486,2.2613,0.9767,2.3285,11.6713,5.4895,-0.0157,0.2139,0.3386,
15.940327,0.1486,2.2613,0.9767,2.3285,11.6713,5.4895,1.3239,-0.1266,0.9934,
15.942306,0.1486,2.2613,0.9767,1.4562,10.7670,5.4377,1.3239,-0.1266,0.9934,
15.943591,0.1648,2.0824,0.9886,1.4562,10.7670,5.4377,1.3239,-0.1266,0.9934,
15.978893,0.1648,2.0824,0.9886,0.5605,8.0450,8.6159,1.3239,-0.1266,0.9934,
15.980262,0.0789,1.4568,1.0207,0.5605,8.0450,8.6159,1.3239,-0.1266,0.9934,
16.018712,0.0789,1.4568,1.0207,0.5605,8.0450,8.6159,2.5754,-0.1712,0.6841,
16.020262,0.0789,1.4568,1.0207,-0.1562,2.5899,7.4245,2.5754,-0.1712,0.6841,
16.057891,0.0789,1.4568,1.0207,-0.1562,2.5899,7.4245,2.7383,-0.2278,1.0759,
16.059120,0.0789,1.4568,1.0207,-0.6887,-1.9888,5.0725,2.7383,-0.2278,1.0759,
16.059994,0.1372,0.6936,0.6504,-0.6887,-1.9888,5.0725,2.7383,-0.2278,1.0759,
16.096479,0.1372,0.6936,0.6504,0.4152,-5.7233,6.2727,2.7383,-0.2278,1.0759,
16.135188,0.1372,0.6936,0.6504,0.4152,-5.7233,6.2727,2.1967,-0.1142,0.4457,
16.136423,0.1372,0.6936,0.6504,-0.6970,-8.2848,5.4128,2.1967,-0.1142,0.4457,
16.137295,0.1469,0.1474,0.4082,-0.6970,-8.2848,5.4128,2.1967,-0.1142,0.4457,
16.174238,0.4753,-0.3199,-0.1543,-0.6970,-8.2848,5.4128,2.1967,-0.1142,0.4457,
16.175485,0.4753,-0.3199,-0.1543,1.1613,-11.3635,2.4875,2.1967,-0.1142,0.4457,
16.213548,0.4753,-0.3199,-0.1543,1.1613,-11.3635,2.4875,2.2751,-0.3814,0.4015,
16.215482,0.4753,-0.3199,-0.1543,2.7971,-13.0611,0.5157,2.2751,-0.3814,0.4015,
16.252213,0.4753,-0.3199,-0.1543,2.7971,-13.0611,0.5157,1.0483,-0.7591,-0.1055,
16.253944,0.4618,-0.4475,-0.3719,2.7971,-13.0611,0.5157,1.0483,-0.7591,-0.1055,
16.254948,0.4618,-0.4475,-0.3719,2.8578,-13.4418,0.2352,1.0483,-0.7591,-0.1055,
16.291209,0.4618,-0.4475,-0.3719,2.6460,-13.8201,-1.4522,1.0483,-0.7591,-0.1055,
16.330511,0.3521,-0.3793,-0.3963,2.6460,-13.8201,-1.4522,1.0483,-0.7591,-0.1055,
16.332860,0.3521,-0.3793,-0.3963,2.6460,-13.8201,-1.4522,-0.0433,-1.0268,-0.3431,
16.335207,0.3521,-0.3793,-0.3963,2.3258,-13.3270,-1.1478,-0.0433,-1.0268,-0.3431,
16.368737,0.3521,-0.3793,-0.3963,1.3729,-11.6010,-1.0868,-0.0433,-1.0268,-0.3431,
16.407863,0.3521,-0.3793,-0.3963,1.3729,-11.6010,-1.0868,-1.2725,-1.3260,-0.1445,
16.410269,0.3366,-0.0132,-0.0732,1.3729,-11.6010,-1.0868,-1.2725,-1.3260,-0.1445,
16.411944,0.3366,-0.0132,-0.0732,2.0828,-9.2378,1.2037,-1.2725,-1.3260,-0.1445,
16.446664,0.3366,-0.0132,-0.0732,1.1196,-6.4696,2.4098,-1.2725,-1.3260,-0.1445,
16.448002,0.0197,0.4272,0.2549,1.1196,-6.4696,2.4098,-1.2725,-1.3260,-0.1445,
16.485255,0.0197,0.4272,0.2549,1.1196,-6.4696,2.4098,-1.8357,-1.6462,0.0605,
16.486510,0.0197,0.4272,0.2549,-1.5768,-4.2772,3.6536,-1.8357,-1.6462,0.0605,
16.523872,-0.2624,1.0079,0.5053,-1.5768,-4.2772,3.6536,-1.8357,-1.6462,0.0605,
16.524957,-0.2624,1.0079,0.5053,-1.5768,-4.2772,3.6536,-2.1922,-1.6565,0.1554,
16.525697,-0.2624,1.0079,0.5053,-2.2257,-1.1343,4.8226,-2.1922,-1.6565,0.1554,
16.564128,-0.2624,1.0079,0.5053,-5.4920,3.1592,4.1572,-2.1922,-1.6565,0.1554,
16.602222,-0.2624,1.0079,0.5053,-5.4920,3.1592,4.1572,-2.0578,-1.3142,0.1506,
16.603215,-0.2624,1.0079,0.5053,-3.4723,3.2230,3.2200,-2.0578,-1.3142,0.1506,
16.603748,-0.2732,1.3350,0.5207,-3.4723,3.2230,3.2200,-2.0578,-1.3142,0.1506,
16.641667,-0.3687,1.7056,0.6008,-3.4723,3.2230,3.2200,-2.0578,-1.3142,0.1506,
16.643019,-0.3687,1.7056,0.6008,-4.7998,8.1178,4.3711,-2.0578,-1.3142,0.1506,
16.680763,-0.3687,1.7056,0.6008,-4.7998,8.1178,4.3711,-1.9038,-0.5922,-0.8200,
16.682149,-0.3687,1.7056,0.6008,-4.1863,7.6826,2.9830,-1.9038,-0.5922,-0.8200,
16.719488,-0.3687,1.7056,0.6008,-4.1863,7.6826,2.9830,-1.2796,-0.2646,-0.0842,
16.720799,-0.1556,1.6431,0.5597,-4.1863,7.6826,2.9830,-1.2796,-0.2646,-0.0842,
16.721649,-0.1556,1.6431,0.5597,-2.4723,7.2846,2.4088,-1.2796,-0.2646,-0.0842,
16.758396,-0.1556,1.6431,0.5597,-1.7741,7.0516,1.6981,-1.2796,-0.2646,-0.0842,
16.797266,-0.1556,1.6431,0.5597,-1.7741,7.0516,1.6981,-0.6941,-0.0543,-0.2023,
16.798669,-0.0538,1.4642,0.5389,-1.7741,7.0516,1.6981,-0.6941,-0.0543,-0.2023,
16.799580,-0.0538,1.4642,0.5389,-0.7796,6.2513,1.8877,-0.6941,-0.0543,-0.2023,
16.835457,-0.0538,1.4642,0.5389,-1.2064,3.3475,0.3550,-0.6941,-0.0543,-0.2023,
16.877094,-0.0538,1.4642,0.5389,-1.2064,3.3475,0.3550,-0.1923,-0.0284,-0.2646,
16.878517,-0.0442,1.1503,0.4755,-1.2064,3.3475,0.3550,-0.1923,-0.0284,-0.2646,
16.879329,-0.0442,1.1503,0.4755,-0.6222,2.2760,0.6874,-0.1923,-0.0284,-0.2646,
16.915242,-0.0442,1.1503,0.4755,-1.8709,0.3760,-0.5253,-0.1923,-0.0284,-0.2646,
16.916583,-0.0442,1.1503,0.4755,-1.8709,0.3760,-0.5253,-0.0863,-0.0822,-0.1545,
16.917465,-0.0705,1.0003,0.4363,-1.8709,0.3760,-0.5253,-0.0863,-0.0822,-0.1545,
16.953686,-0.0705,1.0003,0.4363,-0.4747,0.9313,0.4659,-0.0863,-0.0822,-0.1545,
16.992966,-0.0705,1.0003,0.4363,-0.4747,0.9313,0.4659,-0.1331,-0.0659,-0.1344,
16.994335,-0.0809,1.0231,0.4323,-0.4747,0.9313,0.4659,-0.1331,-0.0659,-0.1344,
16.995032,-0.0809,1.0231,0.4323,-0.9946,1.0651,-0.0149,-0.1331,-0.0659,-0.1344,
17.030942,-0.0809,1.0231,0.4323,-0.6477,0.9274,0.2328,-0.1331,-0.0659,-0.1344,
17.070903,-0.0809,1.0231,0.4323,-0.6477,0.9274,0.2328,0.0173,0.0702,-0.0348,
17.071959,0.0231,0.9782,0.4456,-0.6477,0.9274,0.2328,0.0173,0.0702,-0.0348,
17.072712,0.0231,0.9782,0.4456,0.1504,0.6921,0.3307,0.0173,0.0702,-0.0348,
17.108781,0.0416,0.8819,0.3998,0.1504,0.6921,0.3307,0.0173,0.0702,-0.0348,
17.111028,0.0416,0.8819,0.3998,0.3730,-0.3910,-0.1945,0.0173,0.0702,-0.0348,
17.148015,0.0416,0.8819,0.3998,0.3730,-0.3910,-0.1945,0.0631,0.0692,-0.0483,
17.149147,0.0416,0.8819,0.3998,0.3932,-0.4112,-0.1792,0.0631,0.0692,-0.0483,
17.187977,0.0416,0.8819,0.3998,0.3932,-0.4112,-0.1792,0.0105,-0.0628,-0.0535,
17.189022,-0.0309,0.8809,0.4127,0.3932,-0.4112,-0.1792,0.0105,-0.0628,-0.0535,
17.189809,-0.0309,0.8809,0.4127,0.1827,-0.1016,0.2431,0.0105,-0.0628,-0.0535,
17.226807,-0.0309,0.8809,0.4127,-0.6555,-0.6429,-0.2789,0.0105,-0.0628,-0.0535,
17.265435,-0.0298,0.9033,0.4271,-0.6555,-0.6429,-0.2789,0.0105,-0.0628,-0.0535,
17.266807,-0.0298,0.9033,0.4271,-0.6555,-0.6429,-0.2789,-0.0305,-0.0816,0.0308,
17.267602,-0.0298,0.9033,0.4271,-0.2575,-0.1857,0.1783,-0.0305,-0.0816,0.0308,
17.304632,-0.0655,0.9291,0.4214,-0.2575,-0.1857,0.1783,-0.0305,-0.0816,0.0308,
17.305729,-0.0655,0.9291,0.4214,-0.5509,-0.1452,-0.2070,-0.0305,-0.0816,0.0308,
17.343737,-0.0655,0.9291,0.4214,-0.5509,-0.1452,-0.2070,-0.0097,-0.0616,0.0809,
17.344823,-0.0655,0.9291,0.4214,-0.7194,0.0888,0.0028,-0.0097,-0.0616,0.0809,
17.383477,-0.0655,0.9291,0.4214,-0.7194,0.0888,0.0028,0.0028,-0.0047,0.1058,
17.384547,-0.0655,0.9291,0.4214,-0.1056,1.1934,0.6685,0.0028,-0.0047,0.1058,
17.385352,-0.0280,1.1549,0.4748,-0.1056,1.1934,0.6685,0.0028,-0.0047,0.1058,
17.421660,-0.0280,1.1549,0.4748,-0.5301,2.6973,0.4455,0.0028,-0.0047,0.1058,
17.460036,0.0957,1.7135,0.6817,-0.5301,2.6973,0.4455,0.0028,-0.0047,0.1058,
17.461238,0.0957,1.7135,0.6817,-0.5301,2.6973,0.4455,0.1268,0.0570,0.0785,
17.461931,0.0957,1.7135,0.6817,0.8297,6.7154,2.5334,0.1268,0.0570,0.0785,
17.499502,0.0957,1.7135,0.6817,0.7030,8.5124,2.8551,0.1268,0.0570,0.0785,
17.538749,0.0924,1.9500,0.6692,0.7030,8.5124,2.8551,0.1268,0.0570,0.0785,
17.539993,0.0924,1.9500,0.6692,0.4216,9.3243,2.6701,0.1268,0.0570,0.0785,
17.540799,0.0924,1.9500,0.6692,0.4216,9.3243,2.6701,0.8831,0.0347,0.1603,
17.577943,-0.0595,1.8446,0.7446,0.4216,9.3243,2.6701,0.8831,0.0347,0.1603,
17.579371,-0.0595,1.8446,0.7446,1.3538,8.9054,6.0001,0.8831,0.0347,0.1603,
17.616580,-0.0595,1.8446,0.7446,-2.0634,7.4265,4.6787,0.8831,0.0347,0.1603,
17.618058,-0.0595,1.8446,0.7446,-2.0634,7.4265,4.6787,1.6145,-0.3893,0.6386,
17.655668,-0.0595,1.8446,0.7446,-2.0634,7.4265,4.6787,2.3659,-0.2217,0.9587,
17.657081,-0.0595,1.8446,0.7446,-1.5218,3.1001,5.0622,2.3659,-0.2217,0.9587,
17.658031,0.0329,1.1388,0.5409,-1.5218,3.1001,5.0622,2.3659,-0.2217,0.9587,
17.693307,0.0329,1.1388,0.5409,-1.0356,-1.6468,3.9042,2.3659,-0.2217,0.9587,
17.733546,0.0329,1.1388,0.5409,-1.0356,-1.6468,3.9042,1.9429,-0.3735,0.7916,
17.735075,-0.0238,0.4982,0.2618,-1.0356,-1.6468,3.9042,1.9429,-0.3735,0.7916,
17.736104,-0.0238,0.4982,0.2618,-1.9149,-5.0761,2.7457,1.9429,-0.3735,0.7916,
17.772000,-0.0238,0.4982,0.2618,-2.9733,-7.0759,3.3939,1.9429,-0.3735,0.7916,
17.773322,-0.1658,0.0346,0.0952,-2.9733,-7.0759,3.3939,1.9429,-0.3735,0.7916,
17.811055,-0.1658,0.0346,0.0952,-2.9733,-7.0759,3.3939,1.4927,-0.1779,-0.2051,
17.812355,-0.1658,0.0346,0.0952,-3.2451,-9.9267,2.3124,1.4927,-0.1779,-0.2051,
17.850152,-0.2908,-0.1544,-0.4336,-3.2451,-9.9267,2.3124,1.4927,-0.1779,-0.2051,
17.851371,-0.2908,-0.1544,-0.4336,-4.2125,-11.7030,-1.4760,1.4927,-0.1779,-0.2051,
17.852431,-0.2908,-0.1544,-0.4336,-4.2125,-11.7030,-1.4760,1.5842,-0.0582,-0.4419,
17.888870,-0.2908,-0.1544,-0.4336,-4.0301,-10.9596,-2.1337,1.5842,-0.0582,-0.4419,
17.927271,-0.1881,-0.1449,-0.4798,-4.0301,-10.9596,-2.1337,1.5842,-0.0582,-0.4419,
17.928879,-0.1881,-0.1449,-0.4798,-3.0924,-10.2205,-1.6650,1.5842,-0.0582,-0.4419,
17.930131,-0.1881,-0.1449,-0.4798,-3.0924,-10.2205,-1.6650,0.7590,0.4019,-0.1807,
17.967493,-0.1881,-0.1449,-0.4798,-2.8636,-11.4826,-2.3072,0.7590,0.4019,-0.1807,
18.006381,-0.1881,-0.1449,-0.4798,-2.8636,-11.4826,-2.3072,0.2727,0.7484,-0.0262,
18.007923,-0.2089,-0.2031,-0.5302,-2.8636,-11.4826,-2.3072,0.2727,0.7484,-0.0262,
18.009095,-0.2089,-0.2031,-0.5302,-3.1835,-11.2541,-2.5297,0.2727,0.7484,-0.0262,
18.045558,-0.2089,-0.2031,-0.5302,-3.4600,-7.7583,-0.8949,0.2727,0.7484,-0.0262,
18.047023,-0.2683,0.3030,-0.1521,-3.4600,-7.7583,-0.8949,0.2727,0.7484,-0.0262,
18.085429,-0.2683,0.3030,-0.1521,-3.9021,-5.5548,0.8084,0.2727,0.7484,-0.0262,
18.087037,-0.2683,0.3030,-0.1521,-3.9021,-5.5548,0.8084,-1.0656,0.9670,-0.2521,
18.124750,-0.0596,0.6706,0.2273,-3.9021,-5.5548,0.8084,-1.0656,0.9670,-0.2521,
18.126382,-0.0596,0.6706,0.2273,-3.9021,-5.5548,0.8084,-1.6648,1.4969,0.2921,
18.127946,-0.0596,0.6706,0.2273,-2.6681,-1.6533,2.7029,-1.6648,1.4969,0.2921,
18.163200,-0.0596,0.6706,0.2273,-1.3096,-3.2307,3.2854,-1.6648,1.4969,0.2921,
18.202324,-0.0596,0.6706,0.2273,-1.3096,-3.2307,3.2854,-1.6998,1.7968,0.2757,
18.203826,0.1711,0.7964,0.3863,-1.3096,-3.2307,3.2854,-1.6998,1.7968,0.2757,
18.204872,0.1711,0.7964,0.3863,-0.3994,-1.4708,2.8168,-1.6998,1.7968,0.2757,
18.240831,0.3790,1.1793,0.8132,-0.3994,-1.4708,2.8168,-1.6998,1.7968,0.2757,
18.242169,0.3790,1.1793,0.8132,1.8218,0.0239,4.5096,-1.6998,1.7968,0.2757,
18.279759,0.3790,1.1793,0.8132,2.1876,2.9503,5.9756,-1.6998,1.7968,0.2757,
18.281031,0.3790,1.1793,0.8132,2.1876,2.9503,5.9756,-1.9807,1.7193,0.0796,
18.317821,0.3790,1.1793,0.8132,2.1876,2.9503,5.9756,-1.5349,1.5171,-0.5566,
18.319348,0.3790,1.1793,0.8132,1.8742,1.4262,4.0238,-1.5349,1.5171,-0.5566,
18.320401,0.3670,1.3667,0.8180,1.8742,1.4262,4.0238,-1.5349,1.5171,-0.5566,
18.357883,0.3670,1.3667,0.8180,2.7803,6.6511,5.0430,-1.5349,1.5171,-0.5566,
18.397390,0.3670,1.3667,0.8180,2.7803,6.6511,5.0430,-1.5244,1.2292,0.1965,
18.398812,0.6245,1.9429,0.8767,2.7803,6.6511,5.0430,-1.5244,1.2292,0.1965,
18.399673,0.6245,1.9429,0.8767,4.5058,9.8630,3.6863,-1.5244,1.2292,0.1965,
18.436053,0.6245,1.9429,0.8767,5.8767,11.5697,5.4998,-1.5244,1.2292,0.1965,
18.475449,0.6245,1.9429,0.8767,5.8767,11.5697,5.4998,-0.4862,0.8107,0.3544,
18.476591,0.6245,1.9429,0.8767,5.8224,11.9024,3.5123,-0.4862,0.8107,0.3544,
18.477454,0.7177,2.1376,0.8377,5.8224,11.9024,3.5123,-0.4862,0.8107,0.3544,
18.513705,0.6252,2.4523,1.1622,5.8224,11.9024,3.5123,-0.4862,0.8107,0.3544,
18.515246,0.6252,2.4523,1.1622,4.4771,15.7231,5.2172,-0.4862,0.8107,0.3544,
18.553252,0.6252,2.4523,1.1622,4.4771,15.7231,5.2172,0.3534,0.0801,0.5656,
18.554769,0.6252,2.4523,1.1622,4.2532,14.2134,7.7533,0.3534,0.0801,0.5656,
18.591497,0.6252,2.4523,1.1622,4.2532,14.2134,7.7533,2.0960,-0.5092,1.0952,
18.592949,0.4566,1.8307,1.0774,4.2532,14.2134,7.7533,2.0960,-0.5092,1.0952,
18.594212,0.4566,1.8307,1.0774,2.5385,10.3324,7.5872,2.0960,-0.5092,1.0952,
18.630043,0.4566,1.8307,1.0774,0.8088,5.1056,7.8113,2.0960,-0.5092,1.0952,
18.670037,0.4566,1.8307,1.0774,0.8088,5.1056,7.8113,2.8608,-0.7915,0.7512,
18.671443,0.4566,1.8307,1.0774,-1.6852,1.7008,9.2035,2.8608,-0.7915,0.7512,
18.672381,0.1439,1.0966,1.0215,-1.6852,1.7008,9.2035,2.8608,-0.7915,0.7512,
18.709705,0.1183,-0.1081,0.3937,-1.6852,1.7008,9.2035,2.8608,-0.7915,0.7512,
18.711958,0.1183,-0.1081,0.3937,-2.2561,-5.6551,8.7290,2.8608,-0.7915,0.7512,
18.747383,0.1183,-0.1081,0.3937,-2.2561,-5.6551,8.7290,3.6039,-0.3812,0.3962,
18.748538,0.1183,-0.1081,0.3937,-2.4099,-11.6371,4.8350,3.6039,-0.3812,0.3962,
18.786650,0.1183,-0.1081,0.3937,-2.4099,-11.6371,4.8350,2.3269,-0.5132,0.9664,
18.788372,0.3627,-0.4839,-0.0794,-2.4099,-11.6371,4.8350,2.3269,-0.5132,0.9664,
18.789372,0.3627,-0.4839,-0.0794,-0.7250,-13.7752,2.6862,2.3269,-0.5132,0.9664,
18.825577,0.3627,-0.4839,-0.0794,-0.3326,-13.8000,1.4606,2.3269,-0.5132,0.9664,
18.865262,0.3627,-0.4839,-0.0794,-0.3326,-13.8000,1.4606,1.1329,-0.7413,0.6281,
18.867183,0.5575,-0.6471,-0.4040,-0.3326,-13.8000,1.4606,1.1329,-0.7413,0.6281,
18.868300,0.5575,-0.6471,-0.4040,1.1955,-14.2268,0.1287,1.1329,-0.7413,0.6281,
18.903931,0.5575,-0.6471,-0.4040,1.5240,-15.6173,-1.7619,1.1329,-0.7413,0.6281,
18.941501,0.5575,-0.6471,-0.4040,1.5240,-15.6173,-1.7619,-0.0397,-0.9832,-0.1633,
18.943638,0.4755,-0.6737,-0.4830,1.5240,-15.6173,-1.7619,-0.0397,-0.9832,-0.1633,
18.944923,0.4755,-0.6737,-0.4830,0.8352,-14.7357,-1.2087,-0.0397,-0.9832,-0.1633,
18.981695,0.4755,-0.6737,-0.4830,0.8352,-14.7357,-1.2087,-1.6155,-1.1653,-0.3464,
18.983680,0.3922,-0.1554,-0.0957,0.8352,-14.7357,-1.2087,-1.6155,-1.1653,-0.3464,
18.984857,0.3922,-0.1554,-0.0957,0.5274,-11.2014,0.6737,-1.6155,-1.1653,-0.3464,
19.020628,0.3922,-0.1554,-0.0957,0.4102,-9.1850,2.4016,-1.6155,-1.1653,-0.3464,
19.060275,0.3922,-0.1554,-0.0957,0.4102,-9.1850,2.4016,-1.9794,-1.2521,-0.4798,
19.061548,0.3922,-0.1554,-0.0957,-1.0662,-7.4234,2.9420,-1.9794,-1.2521,-0.4798,
19.062508,0.1466,0.2691,0.1563,-1.0662,-7.4234,2.9420,-1.9794,-1.2521,-0.4798,
19.098975,0.1466,0.2691,0.1563,-1.9998,-3.7554,3.9735,-1.9794,-1.2521,-0.4798,
19.138244,-0.1132,0.9924,0.4582,-1.9998,-3.7554,3.9735,-1.9794,-1.2521,-0.4798,
19.139717,-0.1132,0.9924,0.4582,-1.9998,-3.7554,3.9735,-2.5349,-1.1495,-0.4197,
19.140673,-0.1132,0.9924,0.4582,-3.2765,-0.2385,4.9839,-2.5349,-1.1495,-0.4197,
19.176632,-0.0339,1.4411,0.5112,-3.2765,-0.2385,4.9839,-2.5349,-1.1495,-0.4197,
19.178154,-0.0339,1.4411,0.5112,-4.8784,7.8625,4.7127,-2.5349,-1.1495,-0.4197,
19.215490,-0.0339,1.4411,0.5112,-4.8784,7.8625,4.7127,-2.4445,-0.6076,-1.3039,
19.216854,-0.0339,1.4411,0.5112,-1.7298,4.6706,4.0728,-2.4445,-0.6076,-1.3039,
19.254098,-0.0339,1.4411,0.5112,-1.7298,4.6706,4.0728,-1.9843,-0.7814,0.0239,
19.255355,-0.1742,1.5206,0.5040,-1.7298,4.6706,4.0728,-1.9843,-0.7814,0.0239,
19.256107,-0.1742,1.5206,0.5040,-3.7252,4.7981,1.3959,-1.9843,-0.7814,0.0239,
19.292155,-0.1742,1.5206,0.5040,-3.0100,6.6797,4.1354,-1.9843,-0.7814,0.0239,
19.330887,-0.1742,1.5206,0.5040,-3.0100,6.6797,4.1354,-1.3927,-0.2819,-0.7074,
19.331650,-0.1742,1.5206,0.5040,-3.0275,6.3756,2.4410,-1.3927,-0.2819,-0.7074,
19.332066,-0.1718,1.4837,0.4572,-3.0275,6.3756,2.4410,-1.3927,-0.2819,-0.7074,
19.370191,0.0041,1.6030,0.6197,-3.0275,6.3756,2.4410,-1.3927,-0.2819,-0.7074,
19.371246,0.0041,1.6030,0.6197,-2.5757,3.2104,-0.2173,-1.3927,-0.2819,-0.7074,
19.408848,0.0041,1.6030,0.6197,-2.5757,3.2104,-0.2173,-1.1450,-0.1300,-0.3707,
19.409957,0.0041,1.6030,0.6197,-0.8724,6.7394,2.5760,-1.1450,-0.1300,-0.3707,
19.447767,-0.1034,1.3061,0.4262,-0.8724,6.7394,2.5760,-1.1450,-0.1300,-0.3707,
19.449077,-0.1034,1.3061,0.4262,-2.2191,4.1613,0.7096,-1.1450,-0.1300,-0.3707,
19.450013,-0.1034,1.3061,0.4262,-2.2191,4.1613,0.7096,-0.3293,-0.1462,-0.5372,
19.486997,-0.1034,1.3061,0.4262,-1.4984,3.5954,0.2813,-0.3293,-0.1462,-0.5372,
19.525646,-0.0588,1.1077,0.4487,-1.4984,3.5954,0.2813,-0.3293,-0.1462,-0.5372,
19.526977,-0.0588,1.1077,0.4487,-1.4984,3.5954,0.2813,-0.3011,-0.0665,-0.0537,
19.527678,-0.0588,1.1077,0.4487,-1.1086,2.6335,1.1164,-0.3011,-0.0665,-0.0537,
19.565379,-0.0588,1.1077,0.4487,-1.3141,0.6055,-0.4030,-0.3011,-0.0665,-0.0537,
19.604447,-0.0588,1.1077,0.4487,-1.3141,0.6055,-0.4030,-0.0714,0.0781,-0.1519,
19.605568,0.0314,0.9330,0.4108,-1.3141,0.6055,-0.4030,-0.0714,0.0781,-0.1519,
19.606461,0.0314,0.9330,0.4108,-0.2155,-0.0023,0.0077,-0.0714,0.0781,-0.1519,
19.643632,0.0095,0.9935,0.3955,-0.2155,-0.0023,0.0077,-0.0714,0.0781,-0.1519,
19.644962,0.0095,0.9935,0.3955,-0.0730,0.8804,0.3950,-0.0714,0.0781,-0.1519,
19.681936,0.0095,0.9935,0.3955,-0.0730,0.8804,0.3950,-0.0224,0.0696,-0.2438,
19.683179,0.0095,0.9935,0.3955,-0.2452,0.6251,-0.2041,-0.0224,0.0696,-0.2438,
19.720892,0.0095,0.9935,0.3955,-0.2452,0.6251,-0.2041,-0.0176,0.0864,-0.1891,
19.722210,0.0229,0.9885,0.4169,-0.2452,0.6251,-0.2041,-0.0176,0.0864,-0.1891,
19.722882,0.0229,0.9885,0.4169,-0.0670,0.7751,0.1140,-0.0176,0.0864,-0.1891,
19.760057,0.0229,0.9885,0.4169,0.1295,0.4507,0.0833,-0.0176,0.0864,-0.1891,
19.798399,0.0229,0.9885,0.4169,0.1295,0.4507,0.0833,-0.0079,-0.0018,-0.1335,
19.799115,0.0229,0.9885,0.4169,0.0743,0.4845,0.0630,-0.0079,-0.0018,-0.1335,
19.799416,0.0225,0.9742,0.4210,0.0743,0.4845,0.0630,-0.0079,-0.0018,-0.1335,
19.837359,-0.0073,0.9070,0.3964,0.0743,0.4845,0.0630,-0.0079,-0.0018,-0.1335,
19.838129,-0.0073,0.9070,0.3964,0.1909,0.3291,0.3500,-0.0079,-0.0018,-0.1335,
19.876294,-0.0073,0.9070,0.3964,0.1909,0.3291,0.3500,0.0832,-0.0362,-0.1334,
19.877343,-0.0073,0.9070,0.3964,-0.1159,-0.2344,-0.0686,0.0832,-0.0362,-0.1334,
19.915752,-0.0073,0.9070,0.3964,-0.1159,-0.2344,-0.0686,0.1888,0.0310,-0.0589,
19.916901,-0.0130,0.9033,0.4056,-0.1159,-0.2344,-0.0686,0.1888,0.0310,-0.0589,
19.918279,-0.0130,0.9033,0.4056,0.0397,0.1225,0.3396,0.1888,0.0310,-0.0589,
19.954548,-0.0130,0.9033,0.4056,-0.2037,-0.5211,0.0090,0.1888,0.0310,-0.0589,
19.993324,-0.0130,0.9033,0.4056,-0.2037,-0.5211,0.0090,0.1477,-0.0054,-0.0383,
19.994299,-0.0130,0.9033,0.4056,-0.1393,-0.3613,-0.3269,0.1477,-0.0054,-0.0383,
19.994661,-0.0229,0.8676,0.3930,-0.1393,-0.3613,-0.3269,0.1477,-0.0054,-0.0383,
20.032212,-0.0229,0.8676,0.3930,-0.1807,-1.1657,0.6826,0.1477,-0.0054,-0.0383,
20.070907,-0.0229,0.8676,0.3930,-0.1807,-1.1657,0.6826,-0.0285,0.0423,-0.3349,
20.071453,-0.0229,0.8676,0.3930,-0.5268,1.0501,0.3949,-0.0285,0.0423,-0.3349,
20.071728,-0.0820,1.0631,0.4383,-0.5268,1.0501,0.3949,-0.0285,0.0423,-0.3349,
20.110237,-0.1099,1.3752,0.3903,-0.5268,1.0501,0.3949,-0.0285,0.0423,-0.3349,
20.111356,-0.1099,1.3752,0.3903,-0.2336,3.2282,1.3702,-0.0285,0.0423,-0.3349,
20.149162,-0.1099,1.3752,0.3903,-0.2336,3.2282,1.3702,0.3086,0.0891,-0.2169,
20.149966,-0.1099,1.3752,0.3903,-0.8090,4.3345,-0.0922,0.3086,0.0891,-0.2169,
20.188438,-0.1099,1.3752,0.3903,-0.8090,4.3345,-0.0922,0.4704,0.1318,0.0326,
20.189167,-0.1099,1.3752,0.3903,0.7869,8.0607,1.8811,0.4704,0.1318,0.0326,
20.189484,-0.0536,1.9394,0.5605,0.7869,8.0607,1.8811,0.4704,0.1318,0.0326,
20.227445,-0.0536,1.9394,0.5605,-1.0312,10.4193,2.5267,0.4704,0.1318,0.0326,
20.266407,-0.1727,2.0548,0.6281,-1.0312,10.4193,2.5267,0.4704,0.1318,0.0326,
20.267503,-0.1727,2.0548,0.6281,-1.5124,10.6254,3.7059,0.4704,0.1318,0.0326,
20.268160,-0.1727,2.0548,0.6281,-1.5124,10.6254,3.7059,1.2286,0.1477,0.3758,
20.305460,-0.0969,1.6130,0.6379,-1.5124,10.6254,3.7059,1.2286,0.1477,0.3758,
20.306676,-0.0969,1.6130,0.6379,-1.9609,6.9543,3.8002,1.2286,0.1477,0.3758,
20.344296,-0.0969,1.6130,0.6379,-1.9609,6.9543,3.8002,1.9737,0.1498,0.9760,
20.345313,-0.0969,1.6130,0.6379,-1.4334,4.9555,5.2016,1.9737,0.1498,0.9760,
20.383643,-0.0969,1.6130,0.6379,-1.4334,4.9555,5.2016,2.3196,0.1023,0.6344,
20.384736,-0.0399,0.8292,0.4152,-1.4334,4.9555,5.2016,2.3196,0.1023,0.6344,
20.385345,-0.0399,0.8292,0.4152,-1.7479,0.5068,5.0534,2.3196,0.1023,0.6344,
20.422639,-0.0399,0.8292,0.4152,-0.9201,-4.3298,4.0181,2.3196,0.1023,0.6344,
20.461633,-0.0399,0.8292,0.4152,-0.9201,-4.3298,4.0181,1.8900,0.0704,-0.1375,
20.462559,-0.0399,0.8292,0.4152,-0.3617,-9.4191,3.1654,1.8900,0.0704,-0.1375,
20.463033,-0.0418,0.0804,0.0906,-0.3617,-9.4191,3.1654,1.8900,0.0704,-0.1375,
20.500546,-0.0418,0.0804,0.0906,-2.2772,-9.8855,0.8616,1.8900,0.0704,-0.1375,
20.539816,-0.0418,0.0804,0.0906,-2.2772,-9.8855,0.8616,1.3157,0.2504,-0.2819,
20.540589,-0.1247,-0.2582,-0.2183,-2.2772,-9.8855,0.8616,1.3157,0.2504,-0.2819,
20.541213,-0.1247,-0.2582,-0.2183,-1.6832,-12.2333,0.2346,1.3157,0.2504,-0.2819,
20.578520,-0.3086,-0.6374,-0.5194,-1.6832,-12.2333,0.2346,1.3157,0.2504,-0.2819,
20.580083,-0.3086,-0.6374,-0.5194,-2.8368,-15.5125,-1.1999,1.3157,0.2504,-0.2819,
20.617686,-0.3086,-0.6374,-0.5194,-2.8368,-15.5125,-1.1999,0.8447,0.1502,0.3157,
20.619104,-0.3086,-0.6374,-0.5194,-3.7373,-15.6272,-2.7850,0.8447,0.1502,0.3157,
20.656665,-0.3086,-0.6374,-0.5194,-3.7373,-15.6272,-2.7850,-0.2506,0.7797,-0.7768,
20.657652,-0.5294,-0.1695,-0.3818,-3.7373,-15.6272,-2.7850,-0.2506,0.7797,-0.7768,
20.658296,-0.5294,-0.1695,-0.3818,-4.1289,-12.7164,-1.6623,-0.2506,0.7797,-0.7768,
20.695676,-0.5294,-0.1695,-0.3818,-6.3775,-8.6061,-0.9124,-0.2506,0.7797,-0.7768,
20.734613,-0.5294,-0.1695,-0.3818,-6.3775,-8.6061,-0.9124,-1.0458,1.6859,-0.6613,
20.735863,-0.4262,0.0897,-0.0175,-6.3775,-8.6061,-0.9124,-1.0458,1.6859,-0.6613,
20.736562,-0.4262,0.0897,-0.0175,-4.3490,-8.5520,1.3000,-1.0458,1.6859,-0.6613,
20.773657,-0.0531,0.6045,0.3937,-4.3490,-8.5520,1.3000,-1.0458,1.6859,-0.6613,
20.774926,-0.0531,0.6045,0.3937,-2.6332,-6.3516,2.4022,-1.0458,1.6859,-0.6613,
20.814616,-0.0531,0.6045,0.3937,-2.6332,-6.3516,2.4022,-1.8768,1.9009,0.2246,
20.815681,-0.0531,0.6045,0.3937,-0.2396,-2.7335,4.4776,-1.8768,1.9009,0.2246,
20.853541,-0.0531,0.6045,0.3937,-0.2396,-2.7335,4.4776,-2.2154,1.7886,-0.4763,
20.854904,0.0454,0.8338,0.6726,-0.2396,-2.7335,4.4776,-2.2154,1.7886,-0.4763,
20.855577,0.0454,0.8338,0.6726,-0.5168,-1.0503,4.0642,-2.2154,1.7886,-0.4763,
20.892572,0.0454,0.8338,0.6726,1.6721,-0.5845,6.3806,-2.2154,1.7886,-0.4763,
20.932685,0.0454,0.8338,0.6726,1.6721,-0.5845,6.3806,-2.6812,1.4902,-0.1600,
20.934191,0.0454,0.8338,0.6726,0.6726,3.9267,6.9618,-2.6812,1.4902,-0.1600,
20.935054,0.0778,1.3297,0.9630,0.6726,3.9267,6.9618,-2.6812,1.4902,-0.1600,
20.970643,0.0778,1.3297,0.9630,2.4438,5.2440,5.7867,-2.6812,1.4902,-0.1600,
21.010956,0.0778,1.3297,0.9630,2.4438,5.2440,5.7867,-2.5223,1.2750,0.8166,
21.012315,0.0778,1.3297,0.9630,5.3164,11.6819,8.2279,-2.5223,1.2750,0.8166,
21.013227,0.5375,2.0602,1.2869,5.3164,11.6819,8.2279,-2.5223,1.2750,0.8166,
21.049038,0.5375,2.0602,1.2869,5.3164,11.6819,8.2279,-1.1069,0.9682,0.9192,
21.050721,0.7525,2.5691,1.1887,5.3164,11.6819,8.2279,-1.1069,0.9682,0.9192,
21.051623,0.7525,2.5691,1.1887,6.6989,15.9823,6.8036,-1.1069,0.9682,0.9192,
21.087424,0.7525,2.5691,1.1887,7.1864,16.7432,6.5462,-1.1069,0.9682,0.9192,
21.126372,0.7525,2.5691,1.1887,7.1864,16.7432,6.5462,0.3976,0.2757,0.6420,
21.127631,0.5086,2.8249,1.3817,7.1864,16.7432,6.5462,0.3976,0.2757,0.6420,
21.128541,0.5086,2.8249,1.3817,4.9521,20.5663,7.8260,0.3976,0.2757,0.6420,
21.164976,0.5086,2.8249,1.3817,3.0383,15.3527,10.0895,0.3976,0.2757,0.6420,
21.205635,0.5086,2.8249,1.3817,3.0383,15.3527,10.0895,2.5365,-0.1420,1.3206,
21.207008,0.5086,2.8249,1.3817,-0.2824,7.0226,8.4391,2.5365,-0.1420,1.3206,
21.207842,0.1863,1.6451,1.1631,-0.2824,7.0226,8.4391,2.5365,-0.1420,1.3206,
21.243570,0.1147,0.9516,0.7201,-0.2824,7.0226,8.4391,2.5365,-0.1420,1.3206,
21.244768,0.1147,0.9516,0.7201,1.5327,-0.6768,7.1997,2.5365,-0.1420,1.3206,
21.282472,0.1147,0.9516,0.7201,1.5327,-0.6768,7.1997,2.7840,-0.3970,1.0988,
21.283735,0.1147,0.9516,0.7201,-2.0382,-1.2396,5.3964,2.7840,-0.3970,1.0988,
21.322234,0.1147,0.9516,0.7201,-2.0382,-1.2396,5.3964,2.7047,-0.8934,1.0167,
21.323476,0.1906,0.0294,0.5630,-2.0382,-1.2396,5.3964,2.7047,-0.8934,1.0167,
21.324312,0.1906,0.0294,0.5630,-2.0717,-5.5467,7.2551,2.7047,-0.8934,1.0167,
21.360516,0.1906,0.0294,0.5630,-0.9347,-13.0519,5.1552,2.7047,-0.8934,1.0167,
21.400204,0.1906,0.0294,0.5630,-0.9347,-13.0519,5.1552,2.3547,-0.9260,0.4129,
21.401867,0.2118,-0.5463,-0.1343,-0.9347,-13.0519,5.1552,2.3547,-0.9260,0.4129,
21.403031,0.2118,-0.5463,-0.1343,-1.8393,-15.0319,0.7657,2.3547,-0.9260,0.4129,
21.438731,0.2118,-0.5463,-0.1343,0.0832,-14.4521,0.3977,2.3547,-0.9260,0.4129,
21.440527,0.6952,-0.5085,-0.3539,0.0832,-14.4521,0.3977,2.3547,-0.9260,0.4129,
21.477352,0.6952,-0.5085,-0.3539,0.0832,-14.4521,0.3977,0.7592,-0.6223,0.1015,
21.479294,0.6952,-0.5085,-0.3539,3.4076,-13.9494,-0.9240,0.7592,-0.6223,0.1015,
21.517247,0.7593,-0.5193,-0.4406,3.4076,-13.9494,-0.9240,0.7592,-0.6223,0.1015,
21.519105,0.7593,-0.5193,-0.4406,3.4076,-13.9494,-0.9240,-0.0477,-0.9570,0.1691,
21.520253,0.7593,-0.5193,-0.4406,4.0314,-13.9616,-1.9746,-0.0477,-0.9570,0.1691,
21.555088,0.7593,-0.5193,-0.4406,4.1528,-13.6501,-1.6044,-0.0477,-0.9570,0.1691,
21.595603,0.7593,-0.5193,-0.4406,4.1528,-13.6501,-1.6044,-1.3084,-1.1740,-0.8695,
21.597410,0.4677,-0.1728,-0.0111,4.1528,-13.6501,-1.6044,-1.3084,-1.1740,-0.8695,
21.598921,0.4677,-0.1728,-0.0111,2.9584,-11.6477,1.1147,-1.3084,-1.1740,-0.8695,
21.633494,0.4677,-0.1728,-0.0111,0.5204,-8.7077,2.9080,-1.3084,-1.1740,-0.8695,
21.671528,0.0004,0.0524,0.2914,0.5204,-8.7077,2.9080,-1.3084,-1.1740,-0.8695,
21.673063,0.0004,0.0524,0.2914,0.5204,-8.7077,2.9080,-1.8034,-1.6505,-0.9916,
21.674237,0.0004,0.0524,0.2914,-1.5958,-8.7152,3.6893,-1.8034,-1.6505,-0.9916,
21.711549,0.0004,0.0524,0.2914,-4.0432,-5.4196,5.1455,-1.8034,-1.6505,-0.9916,
21.712370,-0.2190,0.9709,0.5602,-4.0432,-5.4196,5.1455,-1.8034,-1.6505,-0.9916,
21.750432,-0.2190,0.9709,0.5602,-4.0432,-5.4196,5.1455,-2.3234,-1.7473,-0.4155,
21.751753,-0.2190,0.9709,0.5602,-3.6032,1.8639,5.1425,-2.3234,-1.7473,-0.4155,
21.789612,-0.2190,0.9709,0.5602,-3.6032,1.8639,5.1425,-2.1415,-1.3474,-1.1426,
21.791045,-0.2190,0.9709,0.5602,-4.3957,5.0901,5.8291,-2.1415,-1.3474,-1.1426,
21.792025,-0.4354,1.6092,0.6020,-4.3957,5.0901,5.8291,-2.1415,-1.3474,-1.1426,
21.828450,-0.4354,1.6092,0.6020,-5.3454,8.1491,3.1232,-2.1415,-1.3474,-1.1426,
21.866392,-0.4354,1.6092,0.6020,-5.3454,8.1491,3.1232,-1.3302,-0.9284,-1.4078,
21.867607,-0.4354,1.6092,0.6020,-3.6084,8.3043,3.8606,-1.3302,-0.9284,-1.4078,
21.868378,-0.4592,1.7354,0.5715,-3.6084,8.3043,3.8606,-1.3302,-0.9284,-1.4078,
21.904563,-0.3125,1.6396,0.6192,-3.6084,8.3043,3.8606,-1.3302,-0.9284,-1.4078,
21.906364,-0.3125,1.6396,0.6192,-7.1422,6.6194,1.3872,-1.3302,-0.9284,-1.4078,
21.943539,-0.3125,1.6396,0.6192,-7.1422,6.6194,1.3872,-1.1444,-0.7259,0.3581,
21.944138,-0.3125,1.6396,0.6192,-3.1481,6.9617,3.0301,-1.1444,-0.7259,0.3581,
21.982746,-0.2266,1.3906,0.4644,-3.1481,6.9617,3.0301,-1.1444,-0.7259,0.3581,
21.983445,-0.2266,1.3906,0.4644,-2.9093,5.0818,1.5204,-1.1444,-0.7259,0.3581,
21.983894,-0.2266,1.3906,0.4644,-2.9093,5.0818,1.5204,-0.6031,-0.4033,0.0660,
22.021933,-0.2266,1.3906,0.4644,-2.2515,4.1977,0.8792,-0.6031,-0.4033,0.0660,
22.063355,-0.2266,1.3906,0.4644,-2.2515,4.1977,0.8792,-0.3555,-0.2181,-0.0121,
22.064585,-0.2266,1.3906,0.4644,-1.4018,3.0299,0.2365,-0.3555,-0.2181,-0.0121,
22.065284,-0.1239,1.2106,0.3998,-1.4018,3.0299,0.2365,-0.3555,-0.2181,-0.0121,
22.101442,-0.1239,1.2106,0.3998,-1.4667,2.1827,0.3070,-0.3555,-0.2181,-0.0121,
22.141131,-0.1239,1.2106,0.3998,-1.4667,2.1827,0.3070,-0.1592,-0.0702,-0.1914,
22.142296,-0.0834,1.1200,0.4009,-1.4667,2.1827,0.3070,-0.1592,-0.0702,-0.1914,
22.143116,-0.0834,1.1200,0.4009,-0.9170,1.8895,0.2325,-0.1592,-0.0702,-0.1914,
22.178681,-0.0559,0.9897,0.3841,-0.9170,1.8895,0.2325,-0.1592,-0.0702,-0.1914,
22.180027,-0.0559,0.9897,0.3841,-0.8369,0.7911,-0.1659,-0.1592,-0.0702,-0.1914,
22.217495,-0.0559,0.9897,0.3841,-0.8369,0.7911,-0.1659,-0.0119,-0.0677,0.0506,
22.218795,-0.0559,0.9897,0.3841,-0.5977,0.4257,0.0712,-0.0119,-0.0677,0.0506,
22.256180,-0.0559,0.9897,0.3841,-0.5977,0.4257,0.0712,0.0150,-0.0112,-0.0028,
22.257330,-0.0389,0.9505,0.3593,-0.5977,0.4257,0.0712,0.0150,-0.0112,-0.0028,
22.258108,-0.0389,0.9505,0.3593,-0.5396,0.4007,-0.2149,0.0150,-0.0112,-0.0028,
22.295366,-0.0389,0.9505,0.3593,-0.4821,-0.1850,-0.1791,0.0150,-0.0112,-0.0028,
22.334196,-0.0389,0.9505,0.3593,-0.4821,-0.1850,-0.1791,0.0432,0.0113,0.1258,
22.335297,-0.0097,0.9479,0.3631,-0.4821,-0.1850,-0.1791,0.0432,0.0113,0.1258,
22.336019,-0.0097,0.9479,0.3631,-0.1423,0.0401,-0.1078,0.0432,0.0113,0.1258,
22.373063,-0.0240,0.9341,0.3405,-0.1423,0.0401,-0.1078,0.0432,0.0113,0.1258,
22.374330,-0.0240,0.9341,0.3405,-0.5534,0.1561,-0.2012,0.0432,0.0113,0.1258,
22.412977,-0.0240,0.9341,0.3405,-0.5534,0.1561,-0.2012,0.0706,0.0817,-0.1605,
22.414529,-0.0240,0.9341,0.3405,-0.2809,-0.0996,-0.3243,0.0706,0.0817,-0.1605,
22.452726,-0.0240,0.9341,0.3405,-0.2809,-0.0996,-0.3243,-0.0436,0.0385,0.1673,
22.453974,0.0289,0.9163,0.3714,-0.2809,-0.0996,-0.3243,-0.0436,0.0385,0.1673,
22.454721,0.0289,0.9163,0.3714,0.0813,-0.3163,-0.2637,-0.0436,0.0385,0.1673,
22.492590,0.0289,0.9163,0.3714,0.1831,-0.1758,0.0873,-0.0436,0.0385,0.1673,
22.531931,0.0289,0.9163,0.3714,0.1831,-0.1758,0.0873,-0.0027,0.0357,-0.0991,
22.533092,-0.0013,0.9091,0.3762,0.1831,-0.1758,0.0873,-0.0027,0.0357,-0.0991,
22.534151,-0.0013,0.9091,0.3762,-0.0308,-0.1329,0.0685,-0.0027,0.0357,-0.0991,
22.568132,-0.0013,0.9091,0.3762,-0.1349,-0.4738,-0.1273,-0.0027,0.0357,-0.0991,
22.608078,-0.0013,0.9091,0.3762,-0.1349,-0.4738,-0.1273,-0.0286,0.0362,-0.0738,
22.609543,-0.0003,0.9335,0.3901,-0.1349,-0.4738,-0.1273,-0.0286,0.0362,-0.0738,
22.610386,-0.0003,0.9335,0.3901,-0.0186,0.0436,0.1160,-0.0286,0.0362,-0.0738,
22.647362,-0.0003,0.9335,0.3901,0.0400,-0.1685,-0.0266,-0.0286,0.0362,-0.0738,
22.648797,-0.0052,0.9282,0.3903,0.0400,-0.1685,-0.0266,-0.0286,0.0362,-0.0738,
22.686349,-0.0052,0.9282,0.3903,0.0400,-0.1685,-0.0266,-0.0273,0.0191,0.0149,
22.687954,-0.0052,0.9282,0.3903,-0.0639,0.0559,0.1085,-0.0273,0.0191,0.0149,
22.726316,-0.0052,0.9282,0.3903,-0.0639,0.0559,0.1085,-0.0404,0.0547,-0.0504,
22.727842,-0.0064,0.9295,0.3985,-0.0639,0.0559,0.1085,-0.0404,0.0547,-0.0504,
22.728819,-0.0064,0.9295,0.3985,0.0239,0.0200,0.2308,-0.0404,0.0547,-0.0504,
22.763334,-0.0064,0.9295,0.3985,-0.1020,0.0288,-0.0469,-0.0404,0.0547,-0.0504,
22.803822,-0.0064,0.9295,0.3985,-0.1020,0.0288,-0.0469,-0.0823,-0.0005,0.1217,
22.805218,0.0339,1.0013,0.4492,-0.1020,0.0288,-0.0469,-0.0823,-0.0005,0.1217,
22.806201,0.0339,1.0013,0.4492,0.2281,0.4108,0.4056,-0.0823,-0.0005,0.1217,
22.842222,0.0900,1.6197,0.6353,0.2281,0.4108,0.4056,-0.0823,-0.0005,0.1217,
22.843549,0.0900,1.6197,0.6353,0.3687,1.8912,0.8748,-0.0823,-0.0005,0.1217,
22.881167,0.0900,1.6197,0.6353,0.3687,1.8912,0.8748,-0.0938,-0.2423,0.1371,
22.882538,0.0900,1.6197,0.6353,0.6394,7.1748,2.3817,-0.0938,-0.2423,0.1371,
22.920375,0.0314,2.0489,0.7651,0.6394,7.1748,2.3817,-0.0938,-0.2423,0.1371,
22.921666,0.0314,2.0489,0.7651,0.6394,7.1748,2.3817,0.7408,-0.1351,-0.0027,
22.922521,0.0314,2.0489,0.7651,-0.1602,12.0712,4.4434,0.7408,-0.1351,-0.0027,
22.958933,0.0314,2.0489,0.7651,0.0546,9.1340,3.7467,0.7408,-0.1351,-0.0027,
22.999033,0.0314,2.0489,0.7651,0.0546,9.1340,3.7467,1.3662,-0.3121,0.7158,
23.000254,0.1458,2.0408,0.8101,0.0546,9.1340,3.7467,1.3662,-0.3121,0.7158,
23.001005,0.1458,2.0408,0.8101,0.4049,10.2415,4.0616,1.3662,-0.3121,0.7158,
23.036873,0.1458,2.0408,0.8101,0.4593,8.4354,8.1624,1.3662,-0.3121,0.7158,
23.075947,0.1458,2.0408,0.8101,0.4593,8.4354,8.1624,2.4809,-0.5483,0.7854,
23.077141,0.1458,2.0408,0.8101,-2.0215,0.9307,5.7284,2.4809,-0.5483,0.7854,
23.078041,-0.0596,1.1745,0.6644,-2.0215,0.9307,5.7284,2.4809,-0.5483,0.7854,
23.114658,-0.0596,1.1745,0.6644,-2.0215,0.9307,5.7284,2.6580,-0.3331,0.4616,
23.115977,-0.1105,0.4685,0.2048,-2.0215,0.9307,5.7284,2.6580,-0.3331,0.4616,
23.116856,-0.1105,0.4685,0.2048,-2.5302,-3.6075,3.9376,2.6580,-0.3331,0.4616,
23.153449,-0.1105,0.4685,0.2048,-2.9698,-6.7200,2.3795,2.6580,-0.3331,0.4616,
23.194070,-0.1105,0.4685,0.2048,-2.9698,-6.7200,2.3795,1.6016,-0.2840,0.5152,
23.195410,-0.1404,0.0605,-0.0216,-2.9698,-6.7200,2.3795,1.6016,-0.2840,0.5152,
23.196158,-0.1404,0.0605,-0.0216,-2.8337,-9.0415,2.0359,1.6016,-0.2840,0.5152,
23.232369,-0.1404,0.0605,-0.0216,-3.8604,-9.9885,1.0534,1.6016,-0.2840,0.5152,
23.271098,-0.1404,0.0605,-0.0216,-3.8604,-9.9885,1.0534,1.4327,-0.2514,-0.0473,
23.272377,-0.1874,-0.2710,-0.3670,-3.8604,-9.9885,1.0534,1.4327,-0.2514,-0.0473,
23.273231,-0.1874,-0.2710,-0.3670,-3.3202,-11.9457,-0.3989,1.4327,-0.2514,-0.0473,
23.310070,-0.4838,-0.4288,-0.8135,-3.3202,-11.9457,-0.3989,1.4327,-0.2514,-0.0473,
23.313039,-0.4838,-0.4288,-0.8135,-4.6797,-13.4340,-3.0041,1.4327,-0.2514,-0.0473,
23.347656,-0.4838,-0.4288,-0.8135,-4.6797,-13.4340,-3.0041,1.0403,-0.0820,-0.3768,
23.349129,-0.4838,-0.4288,-0.8135,-6.2856,-13.2152,-4.9063,1.0403,-0.0820,-0.3768,
23.388903,-0.4838,-0.4288,-0.8135,-6.2856,-13.2152,-4.9063,-0.5028,0.9772,-0.1354,
23.390717,-0.4838,-0.4288,-0.8135,-6.0414,-11.3621,-2.7040,-0.5028,0.9772,-0.1354,
23.391773,-0.4485,-0.0974,-0.4262,-6.0414,-11.3621,-2.7040,-0.5028,0.9772,-0.1354,
23.426191,-0.4485,-0.0974,-0.4262,-5.6277,-8.6682,-0.2052,-0.5028,0.9772,-0.1354,
23.464790,-0.4485,-0.0974,-0.4262,-5.6277,-8.6682,-0.2052,-0.6695,1.4361,0.2831,
23.465932,-0.3266,0.1685,-0.0771,-5.6277,-8.6682,-0.2052,-0.6695,1.4361,0.2831,
23.466709,-0.3266,0.1685,-0.0771,-4.8170,-7.0409,1.1618,-0.6695,1.4361,0.2831,
23.503974,-0.2452,0.3589,0.1338,-4.8170,-7.0409,1.1618,-0.6695,1.4361,0.2831,
23.504696,-0.2452,0.3589,0.1338,-4.9335,-7.2113,2.5155,-0.6695,1.4361,0.2831,
23.542875,-0.2452,0.3589,0.1338,-4.1393,-5.2171,2.4315,-0.6695,1.4361,0.2831,
23.543422,-0.2452,0.3589,0.1338,-4.1393,-5.2171,2.4315,-1.1628,2.0532,-0.1069,
23.583521,-0.2452,0.3589,0.1338,-4.1393,-5.2171,2.4315,-2.1657,2.3220,-0.3505,
23.585102,-0.2452,0.3589,0.1338,-0.3799,-1.3017,7.2477,-2.1657,2.3220,-0.3505,
23.586300,0.0648,1.0844,0.5848,-0.3799,-1.3017,7.2477,-2.1657,2.3220,-0.3505,
23.620552,0.0648,1.0844,0.5848,-1.1155,3.0893,4.2114,-2.1657,2.3220,-0.3505,
23.661934,0.0648,1.0844,0.5848,-1.1155,3.0893,4.2114,-2.0985,2.3696,-0.4785,
23.663409,0.0648,1.0844,0.5848,3.6706,4.1277,8.7034,-2.0985,2.3696,-0.4785,
23.664309,0.4632,1.4320,0.9784,3.6706,4.1277,8.7034,-2.0985,2.3696,-0.4785,
23.700483,0.4632,1.4320,0.9784,3.1630,6.7312,5.4516,-2.0985,2.3696,-0.4785,
23.738355,0.4632,1.4320,0.9784,3.1630,6.7312,5.4516,-1.9702,1.9478,-0.3977,
23.739638,0.4632,1.4320,0.9784,5.0623,9.9938,6.4378,-1.9702,1.9478,-0.3977,
23.740492,0.6271,1.9415,1.0351,5.0623,9.9938,6.4378,-1.9702,1.9478,-0.3977,
23.777115,0.9528,2.2243,1.0942,5.0623,9.9938,6.4378,-1.9702,1.9478,-0.3977,
23.778560,0.9528,2.2243,1.0942,7.2430,12.3392,7.1245,-1.9702,1.9478,-0.3977,
23.817050,0.9528,2.2243,1.0942,7.2430,12.3392,7.1245,-1.0613,1.2454,0.6731,
23.818505,0.9528,2.2243,1.0942,8.3893,13.0418,6.2647,-1.0613,1.2454,0.6731,
23.856891,0.9528,2.2243,1.0942,8.3893,13.0418,6.2647,0.1948,0.3764,0.6721,
23.858352,0.9477,2.3863,1.0991,8.3893,13.0418,6.2647,0.1948,0.3764,0.6721,
23.859234,0.9477,2.3863,1.0991,8.5179,13.5997,5.8087,0.1948,0.3764,0.6721,
23.894992,0.9477,2.3863,1.0991,6.6489,14.4105,7.2237,0.1948,0.3764,0.6721,
23.934593,0.9477,2.3863,1.0991,6.6489,14.4105,7.2237,1.6352,-0.5800,0.7488,
23.935898,0.5406,1.7974,1.0609,6.6489,14.4105,7.2237,1.6352,-0.5800,0.7488,
23.936790,0.5406,1.7974,1.0609,3.8077,8.7565,7.6228,1.6352,-0.5800,0.7488,
23.972796,0.5406,1.7974,1.0609,-0.1049,4.3146,6.4446,1.6352,-0.5800,0.7488,
23.974227,0.0979,0.9635,0.7531,-0.1049,4.3146,6.4446,1.6352,-0.5800,0.7488,
24.011818,0.0979,0.9635,0.7531,-0.1049,4.3146,6.4446,2.4261,-0.9344,0.4793,
24.013437,0.0979,0.9635,0.7531,-1.9962,-1.0605,5.9079,2.4261,-0.9344,0.4793,
24.052068,0.0979,0.9635,0.7531,-1.9962,-1.0605,5.9079,2.1145,-0.6482,0.6060,
24.053353,0.0979,0.9635,0.7531,-3.0990,-3.8395,5.1196,2.1145,-0.6482,0.6060,
24.054432,0.0443,0.3687,0.4762,-3.0990,-3.8395,5.1196,2.1145,-0.6482,0.6060,
24.090327,0.0443,0.3687,0.4762,-2.8008,-7.7576,4.3719,2.1145,-0.6482,0.6060,
24.129701,0.0443,0.3687,0.4762,-2.8008,-7.7576,4.3719,1.8961,-0.5076,1.2283,
24.131266,0.3509,-0.0868,0.0177,-2.8008,-7.7576,4.3719,1.8961,-0.5076,1.2283,
24.132052,0.3509,-0.0868,0.0177,-1.6720,-9.5396,1.6898,1.8961,-0.5076,1.2283,
24.167770,0.3509,-0.0868,0.0177,0.8067,-11.4050,0.8326,1.8961,-0.5076,1.2283,
24.207779,0.3509,-0.0868,0.0177,0.8067,-11.4050,0.8326,1.0980,-1.0131,1.3879,
24.209406,0.5749,-0.3076,-0.2196,0.8067,-11.4050,0.8326,1.0980,-1.0131,1.3879,
24.210593,0.5749,-0.3076,-0.2196,0.9642,-11.5491,0.1328,1.0980,-1.0131,1.3879,
24.245957,0.4391,-0.4744,-0.4752,0.9642,-11.5491,0.1328,1.0980,-1.0131,1.3879,
24.247696,0.4391,-0.4744,-0.4752,0.2890,-12.7921,-1.9195,1.0980,-1.0131,1.3879,
24.285157,0.4391,-0.4744,-0.4752,-0.0326,-13.1420,-2.2007,1.0980,-1.0131,1.3879,
24.286863,0.4391,-0.4744,-0.4752,-0.0326,-13.1420,-2.2007,0.4438,-1.0477,-0.3307,
24.325058,0.4391,-0.4744,-0.4752,-0.0326,-13.1420,-2.2007,-0.9367,-1.0374,-0.6696,
24.326818,0.4391,-0.4744,-0.4752,0.1200,-11.6834,-1.6908,-0.9367,-1.0374,-0.6696,
24.327934,0.3798,-0.2032,-0.2918,0.1200,-11.6834,-1.6908,-0.9367,-1.0374,-0.6696,
24.362879,0.3798,-0.2032,-0.2918,-0.2214,-9.2356,0.2568,-0.9367,-1.0374,-0.6696,
24.402948,0.3798,-0.2032,-0.2918,-0.2214,-9.2356,0.2568,-1.7126,-1.2718,-0.3044,
24.405017,0.3798,-0.2032,-0.2918,-0.9804,-6.5691,1.2556,-1.7126,-1.2718,-0.3044,
24.406590,0.2320,0.2358,0.0077,-0.9804,-6.5691,1.2556,-1.7126,-1.2718,-0.3044,
24.439267,0.1575,0.5431,0.3123,-0.9804,-6.5691,1.2556,-1.7126,-1.2718,-0.3044,
24.440517,0.1575,0.5431,0.3123,-1.8745,-4.8950,2.3771,-1.7126,-1.2718,-0.3044,
24.480005,0.1575,0.5431,0.3123,-1.8745,-4.8950,2.3771,-2.0719,-1.1348,-0.0876,
24.481412,0.1575,0.5431,0.3123,-1.6623,-3.1304,3.4736,-2.0719,-1.1348,-0.0876,
24.518753,0.1575,0.5431,0.3123,-1.6623,-3.1304,3.4736,-2.5425,-0.7704,-0.8758,
24.520125,-0.0468,1.1908,0.5135,-1.6623,-3.1304,3.4736,-2.5425,-0.7704,-0.8758,
24.521008,-0.0468,1.1908,0.5135,-3.4021,0.7103,3.6591,-2.5425,-0.7704,-0.8758,
24.557525,-0.0468,1.1908,0.5135,-2.8068,4.1343,4.1628,-2.5425,-0.7704,-0.8758,
24.597682,-0.2258,1.4712,0.5449,-2.8068,4.1343,4.1628,-2.5425,-0.7704,-0.8758,
24.598973,-0.2258,1.4712,0.5449,-2.8068,4.1343,4.1628,-2.0899,-0.4988,-1.2600,
24.599859,-0.2258,1.4712,0.5449,-4.1854,5.7535,3.1184,-2.0899,-0.4988,-1.2600,
24.636393,-0.2258,1.4712,0.5449,-3.6785,5.1170,3.0998,-2.0899,-0.4988,-1.2600,
24.675027,-0.2258,1.4712,0.5449,-3.6785,5.1170,3.0998,-1.5598,-0.3398,-0.7511,
24.676536,-0.1138,1.5399,0.6225,-3.6785,5.1170,3.0998,-1.5598,-0.3398,-0.7511,
24.677526,-0.1138,1.5399,0.6225,-2.5343,6.2931,2.9985,-1.5598,-0.3398,-0.7511,
24.712744,-0.1138,1.5399,0.6225,-2.4017,5.2224,2.1443,-1.5598,-0.3398,-0.7511,
24.713994,-0.0522,1.3854,0.5659,-2.4017,5.2224,2.1443,-1.5598,-0.3398,-0.7511,
24.752741,-0.0522,1.3854,0.5659,-2.4017,5.2224,2.1443,-0.9541,-0.2464,-0.4726,
24.754314,-0.0522,1.3854,0.5659,-1.4019,4.6025,1.7019,-0.9541,-0.2464,-0.4726,
24.792503,-0.0522,1.3854,0.5659,-1.4019,4.6025,1.7019,-0.6829,-0.2363,-0.3551,
24.793725,-0.0522,1.3854,0.5659,-1.7972,4.5519,1.2109,-0.6829,-0.2363,-0.3551,
24.794630,-0.0598,1.3099,0.5333,-1.7972,4.5519,1.2109,-0.6829,-0.2363,-0.3551,
24.830205,-0.0598,1.3099,0.5333,-1.2164,3.4241,1.0234,-0.6829,-0.2363,-0.3551,
24.870851,-0.0598,1.3099,0.5333,-1.2164,3.4241,1.0234,-0.2991,-0.1226,-0.3738,
24.872177,-0.0598,1.3099,0.5333,-1.3150,2.6418,0.5073,-0.2991,-0.1226,-0.3738,
24.873058,-0.0636,1.1598,0.4696,-1.3150,2.6418,0.5073,-0.2991,-0.1226,-0.3738,
24.908661,0.0269,1.1457,0.4955,-1.3150,2.6418,0.5073,-0.2991,-0.1226,-0.3738,
24.910227,0.0269,1.1457,0.4955,-1.4113,1.9242,-0.3675,-0.2991,-0.1226,-0.3738,
24.947398,0.0269,1.1457,0.4955,-1.4113,1.9242,-0.3675,-0.1751,-0.0602,-0.1045,
24.948635,0.0269,1.1457,0.4955,-0.3056,2.3875,0.6120,-0.1751,-0.0602,-0.1045,
24.986550,0.0269,1.1457,0.4955,-0.3056,2.3875,0.6120,0.1400,-0.0900,-0.0409,
24.987792,0.0117,0.9880,0.4310,-0.3056,2.3875,0.6120,0.1400,-0.0900,-0.0409,
24.988619,0.0117,0.9880,0.4310,-0.7239,0.8554,-0.0612,0.1400,-0.0900,-0.0409,
25.025720,0.0117,0.9880,0.4310,-0.4100,0.6601,-0.0399,0.1400,-0.0900,-0.0409,
25.065205,0.0117,0.9880,0.4310,-0.4100,0.6601,-0.0399,0.1024,-0.0111,-0.0447,
25.066637,0.0117,0.9880,0.4310,-0.2114,0.7922,0.3287,0.1024,-0.0111,-0.0447,
25.067294,0.0309,0.9881,0.4518,-0.2114,0.7922,0.3287,0.1024,-0.0111,-0.0447,
25.104450,0.0309,0.9881,0.4518,-0.5344,0.4323,0.0260,0.1024,-0.0111,-0.0447,
25.143742,0.0309,0.9881,0.4518,-0.5344,0.4323,0.0260,0.2012,0.0181,-0.0073,
25.145025,0.0780,0.9143,0.4130,-0.5344,0.4323,0.0260,0.2012,0.0181,-0.0073,
25.146059,0.0780,0.9143,0.4130,0.1495,-0.0927,-0.0371,0.2012,0.0181,-0.0073,
25.182254,0.0780,0.9143,0.4130,0.1495,-0.0927,-0.0371,0.0503,-0.0403,0.0221,
25.183555,0.0780,0.9143,0.4130,-0.2577,-0.2961,-0.1429,0.0503,-0.0403,0.0221,
25.184427,0.0631,0.8969,0.4172,-0.2577,-0.2961,-0.1429,0.0503,-0.0403,0.0221,
25.220881,0.0631,0.8969,0.4172,0.0861,-0.2676,0.0963,0.0503,-0.0403,0.0221,
25.259563,0.0631,0.8969,0.4172,0.0861,-0.2676,0.0963,0.0640,-0.0396,-0.0144,
25.261518,0.0631,0.8969,0.4172,-0.1016,-0.2008,-0.0847,0.0640,-0.0396,-0.0144,
25.262821,0.0568,0.9107,0.4108,-0.1016,-0.2008,-0.0847,0.0640,-0.0396,-0.0144,
25.298681,0.0568,0.9107,0.4108,-0.0283,-0.0940,0.1365,0.0640,-0.0396,-0.0144,
25.338227,0.0568,0.9107,0.4108,-0.0283,-0.0940,0.1365,0.0773,-0.0302,-0.0386,
25.340103,0.0252,0.9024,0.3922,-0.0283,-0.0940,0.1365,0.0773,-0.0302,-0.0386,
25.340908,0.0252,0.9024,0.3922,-0.3540,-0.2995,-0.1429,0.0773,-0.0302,-0.0386,
25.376918,0.0445,0.9026,0.3948,-0.3540,-0.2995,-0.1429,0.0773,-0.0302,-0.0386,
25.378661,0.0445,0.9026,0.3948,-0.2895,0.0136,-0.0156,0.0773,-0.0302,-0.0386,
25.415510,0.0445,0.9026,0.3948,-0.0621,-0.2571,-0.0991,0.0773,-0.0302,-0.0386,
25.416798,0.0445,0.9026,0.3948,-0.0621,-0.2571,-0.0991,-0.0076,0.0323,-0.0157,
25.455405,0.0445,0.9026,0.3948,-0.0621,-0.2571,-0.0991,-0.0470,0.0380,-0.0071,
25.456718,0.0555,0.8989,0.3982,-0.0621,-0.2571,-0.0991,-0.0470,0.0380,-0.0071,
25.457582,0.0555,0.8989,0.3982,-0.0904,-0.1484,-0.0981,-0.0470,0.0380,-0.0071,
25.493555,0.0555,0.8989,0.3982,0.0856,-0.2415,-0.0497,-0.0470,0.0380,-0.0071,
25.533256,0.0518,0.9069,0.4234,0.0856,-0.2415,-0.0497,-0.0470,0.0380,-0.0071,
25.534741,0.0518,0.9069,0.4234,0.0856,-0.2415,-0.0497,-0.0494,0.0186,0.0541,
25.535639,0.0518,0.9069,0.4234,-0.0338,-0.1296,0.1014,-0.0494,0.0186,0.0541,
25.572134,0.0360,0.9770,0.4378,-0.0338,-0.1296,0.1014,-0.0494,0.0186,0.0541,
25.573575,0.0360,0.9770,0.4378,-0.0174,0.0340,0.1986,-0.0494,0.0186,0.0541,
25.611165,0.0360,0.9770,0.4378,-0.1517,0.5574,0.1761,-0.0494,0.0186,0.0541,
25.612730,0.0360,0.9770,0.4378,-0.1517,0.5574,0.1761,-0.0710,0.0556,-0.0460,
25.651415,0.0585,1.5220,0.5908,-0.1517,0.5574,0.1761,-0.0710,0.0556,-0.0460,
25.652945,0.0585,1.5220,0.5908,-0.1517,0.5574,0.1761,0.0128,0.0352,-0.0901,
25.653964,0.0585,1.5220,0.5908,0.0919,3.2320,0.8471,0.0128,0.0352,-0.0901,
25.687886,0.0585,1.5220,0.5908,0.2254,6.7681,2.0347,0.0128,0.0352,-0.0901,
25.726796,0.0585,1.5220,0.5908,0.2254,6.7681,2.0347,0.5459,0.0303,-0.0542,
25.727878,0.0514,1.9152,0.6712,0.2254,6.7681,2.0347,0.5459,0.0303,-0.0542,
25.728642,0.0514,1.9152,0.6712,0.0786,9.3643,2.8488,0.5459,0.0303,-0.0542,
25.766420,0.0514,1.9152,0.6712,-0.0071,8.8575,2.8147,0.5459,0.0303,-0.0542,
25.806616,0.0881,1.9344,0.8028,-0.0071,8.8575,2.8147,0.5459,0.0303,-0.0542,
25.808074,0.0881,1.9344,0.8028,-0.0071,8.8575,2.8147,1.1417,-0.0909,0.6451,
25.809005,0.0881,1.9344,0.8028,-0.0213,9.2072,4.8885,1.1417,-0.0909,0.6451,
25.845191,0.0490,1.3475,0.6668,-0.0213,9.2072,4.8885,1.1417,-0.0909,0.6451,
25.846595,0.0490,1.3475,0.6668,-0.6869,6.2613,4.5915,1.1417,-0.0909,0.6451,
25.883693,0.0490,1.3475,0.6668,-0.6869,6.2613,4.5915,2.0534,-0.3011,0.8991,
25.885677,0.0490,1.3475,0.6668,-1.2166,2.0188,4.9391,2.0534,-0.3011,0.8991,
25.923384,0.0490,1.3475,0.6668,-1.2166,2.0188,4.9391,2.0886,-0.2593,0.6263,
25.924846,0.0490,1.3475,0.6668,-2.3075,-2.3157,3.1935,2.0886,-0.2593,0.6263,
25.925978,-0.0579,0.7295,0.3178,-2.3075,-2.3157,3.1935,2.0886,-0.2593,0.6263,
25.961352,-0.0579,0.7295,0.3178,-2.6633,-4.1800,2.2855,2.0886,-0.2593,0.6263,
26.001336,0.0350,0.6976,0.2629,-2.6633,-4.1800,2.2855,2.0886,-0.2593,0.6263,
26.003010,0.0350,0.6976,0.2629,-1.6865,-2.7752,3.7429,2.0886,-0.2593,0.6263,
26.004008,0.0350,0.6976,0.2629,-1.6865,-2.7752,3.7429,1.5369,-0.2464,0.5282,
26.039511,0.0350,0.6976,0.2629,-2.7608,-5.3425,1.9240,1.5369,-0.2464,0.5282,
26.040827,0.0037,0.2129,-0.0150,-2.7608,-5.3425,1.9240,1.5369,-0.2464,0.5282,
26.078653,0.0037,0.2129,-0.0150,-2.6022,-7.7736,1.9389,1.5369,-0.2464,0.5282,
26.080156,0.0037,0.2129,-0.0150,-2.6022,-7.7736,1.9389,2.0675,-0.5728,0.8404,
26.117179,0.0037,0.2129,-0.0150,-2.6022,-7.7736,1.9389,1.7638,-0.0470,-0.3958,
26.118529,-0.0754,-0.0660,-0.4322,-2.6022,-7.7736,1.9389,1.7638,-0.0470,-0.3958,
26.119356,-0.0754,-0.0660,-0.4322,-2.0998,-9.8767,0.2365,1.7638,-0.0470,-0.3958,
26.156784,-0.0754,-0.0660,-0.4322,-3.5340,-9.9831,-1.8799,1.7638,-0.0470,-0.3958,
26.196295,-0.0754,-0.0660,-0.4322,-3.5340,-9.9831,-1.8799,0.7525,0.4048,-0.1151,
26.197321,-0.1871,-0.1059,-0.5504,-3.5340,-9.9831,-1.8799,0.7525,0.4048,-0.1151,
26.198403,-0.1871,-0.1059,-0.5504,-3.8372,-9.7997,-1.4352,0.7525,0.4048,-0.1151,
26.234485,-0.1871,-0.1059,-0.5504,-4.5513,-10.1678,-2.9438,0.7525,0.4048,-0.1151,
26.273693,-0.1871,-0.1059,-0.5504,-4.5513,-10.1678,-2.9438,-0.0755,0.8913,-0.1057,
26.275805,-0.2398,-0.1143,-0.5547,-4.5513,-10.1678,-2.9438,-0.0755,0.8913,-0.1057,
26.277194,-0.2398,-0.1143,-0.5547,-4.5639,-9.9853,-2.4221,-0.0755,0.8913,-0.1057,
26.311086,-0.3193,0.1212,-0.2537,-4.5639,-9.9853,-2.4221,-0.0755,0.8913,-0.1057,
26.312267,-0.3193,0.1212,-0.2537,-5.3082,-8.2775,-1.4122,-0.0755,0.8913,-0.1057,
26.351606,-0.3193,0.1212,-0.2537,-5.3082,-8.2775,-1.4122,-1.0021,1.4695,-0.4583,
26.353053,-0.3193,0.1212,-0.2537,-5.2661,-7.3718,0.0614,-1.0021,1.4695,-0.4583,
26.391108,-0.3193,0.1212,-0.2537,-5.2661,-7.3718,0.0614,-1.4740,1.9953,-0.2929,
26.392391,-0.3193,0.1212,-0.2537,-4.3074,-6.5597,0.8416,-1.4740,1.9953,-0.2929,
26.393211,-0.2156,0.3250,0.1227,-4.3074,-6.5597,0.8416,-1.4740,1.9953,-0.2929,
26.429395,-0.2156,0.3250,0.1227,-4.1548,-4.6457,3.4224,-1.4740,1.9953,-0.2929,
26.468358,-0.2156,0.3250,0.1227,-2.2589,-1.1327,4.1300,-1.4740,1.9953,-0.2929,
26.469732,-0.2156,0.3250,0.1227,-2.2589,-1.1327,4.1300,-1.9192,2.2038,-0.1637,
26.470689,-0.0099,0.7961,0.5341,-2.2589,-1.1327,4.1300,-1.9192,2.2038,-0.1637,
26.507560,0.2830,1.0972,0.9054,-2.2589,-1.1327,4.1300,-1.9192,2.2038,-0.1637,
26.508856,0.2830,1.0972,0.9054,-1.2374,-0.3760,6.3947,-1.9192,2.2038,-0.1637,
26.546277,0.2830,1.0972,0.9054,-1.2374,-0.3760,6.3947,-1.9641,2.4623,-0.4414,
26.547552,0.2830,1.0972,0.9054,1.4569,2.2641,6.6616,-1.9641,2.4623,-0.4414,
26.585677,0.2830,1.0972,0.9054,1.4569,2.2641,6.6616,-2.1533,2.0376,0.0125,
26.587049,0.2830,1.0972,0.9054,4.7445,6.2818,7.1503,-2.1533,2.0376,0.0125,
26.587960,0.7525,1.8899,1.2186,4.7445,6.2818,7.1503,-2.1533,2.0376,0.0125,
26.624396,0.7525,1.8899,1.2186,6.7513,12.1063,8.7240,-2.1533,2.0376,0.0125,
26.664166,0.7525,1.8899,1.2186,6.7513,12.1063,8.7240,-1.2109,1.2680,0.3586,
26.665618,1.0543,2.5764,1.3596,6.7513,12.1063,8.7240,-1.2109,1.2680,0.3586,
26.666700,1.0543,2.5764,1.3596,8.9551,16.2569,8.8970,-1.2109,1.2680,0.3586,
26.702360,1.0543,2.5764,1.3596,8.5677,17.1304,8.3906,-1.2109,1.2680,0.3586,
26.741683,1.0543,2.5764,1.3596,8.5677,17.1304,8.3906,0.3603,0.4557,0.5767,
26.743079,1.0543,2.5764,1.3596,7.1896,16.5913,9.4203,0.3603,0.4557,0.5767,
26.743971,0.9336,2.5893,1.4103,7.1896,16.5913,9.4203,0.3603,0.4557,0.5767,
26.780151,0.6294,1.4398,1.0969,7.1896,16.5913,9.4203,0.3603,0.4557,0.5767,
26.781588,0.6294,1.4398,1.0969,5.5255,8.4062,8.4963,0.3603,0.4557,0.5767,
26.819027,0.6294,1.4398,1.0969,5.5255,8.4062,8.4963,1.9696,-0.2816,0.8902,
26.820297,0.6294,1.4398,1.0969,2.8035,2.9915,7.1637,1.9696,-0.2816,0.8902,
26.858171,0.6294,1.4398,1.0969,2.8035,2.9915,7.1637,2.4895,-0.9544,0.3040,
26.859425,0.6294,1.4398,1.0969,0.4666,-1.8635,6.5532,2.4895,-0.9544,0.3040,
26.860338,0.2690,0.7039,0.6585,0.4666,-1.8635,6.5532,2.4895,-0.9544,0.3040,
26.897331,0.2690,0.7039,0.6585,-1.6308,-4.7172,3.0425,2.4895,-0.9544,0.3040,
26.937368,0.2690,0.7039,0.6585,-1.6308,-4.7172,3.0425,2.0485,-1.5052,0.8198,
26.939478,0.2690,0.7039,0.6585,-2.4416,-5.8075,3.9874,2.0485,-1.5052,0.8198,
26.940916,0.1471,0.3820,0.3981,-2.4416,-5.8075,3.9874,2.0485,-1.5052,0.8198,
26.974814,0.1471,0.3820,0.3981,-1.8771,-7.5185,3.5615,2.0485,-1.5052,0.8198,
26.976135,0.1890,-0.0392,0.1424,-1.8771,-7.5185,3.5615,2.0485,-1.5052,0.8198,
27.013223,0.1890,-0.0392,0.1424,-1.8771,-7.5185,3.5615,2.1670,-1.5157,0.6053,
27.014501,0.1890,-0.0392,0.1424,-2.1990,-9.9763,2.9984,2.1670,-1.5157,0.6053,
27.052803,0.1890,-0.0392,0.1424,-2.1990,-9.9763,2.9984,1.8564,-0.9998,0.1203,
27.054077,0.3440,-0.3104,-0.2918,-2.1990,-9.9763,2.9984,1.8564,-0.9998,0.1203,
27.054820,0.3440,-0.3104,-0.2918,-0.3957,-11.1672,0.7328,1.8564,-0.9998,0.1203,
27.091676,0.3440,-0.3104,-0.2918,-0.4922,-12.2472,-0.4156,1.8564,-0.9998,0.1203,
27.132924,0.3440,-0.3104,-0.2918,-0.4922,-12.2472,-0.4156,0.6990,-0.7710,-0.5017,
27.135107,0.4870,-0.3774,-0.4771,-0.4922,-12.2472,-0.4156,0.6990,-0.7710,-0.5017,
27.136033,0.4870,-0.3774,-0.4771,1.3848,-12.6564,-1.7061,0.6990,-0.7710,-0.5017,
27.170090,0.4870,-0.3774,-0.4771,1.3861,-11.1963,-0.6178,0.6990,-0.7710,-0.5017,
27.209791,0.4870,-0.3774,-0.4771,1.3861,-11.1963,-0.6178,-0.8350,-1.2755,-0.2422,
27.211341,0.4323,-0.0202,-0.2503,1.3861,-11.1963,-0.6178,-0.8350,-1.2755,-0.2422,
27.212288,0.4323,-0.0202,-0.2503,1.2584,-8.6886,0.5584,-0.8350,-1.2755,-0.2422,
27.247898,0.1294,0.2072,-0.0663,1.2584,-8.6886,0.5584,-0.8350,-1.2755,-0.2422,
27.249221,0.1294,0.2072,-0.0663,-0.6158,-7.6275,1.4453,-0.8350,-1.2755,-0.2422,
27.250305,0.1294,0.2072,-0.0663,-0.6158,-7.6275,1.4453,-1.2913,-1.3510,-0.2623,
27.287191,0.1294,0.2072,-0.0663,-1.5436,-6.1849,1.8259,-1.2913,-1.3510,-0.2623,
27.327251,0.1294,0.2072,-0.0663,-1.5436,-6.1849,1.8259,-2.0292,-1.1014,-0.5052,
27.328618,0.1294,0.2072,-0.0663,-2.9671,-4.3506,3.0525,-2.0292,-1.1014,-0.5052,
27.329506,-0.1260,0.4721,0.1861,-2.9671,-4.3506,3.0525,-2.0292,-1.1014,-0.5052,
27.365472,-0.1260,0.4721,0.1861,-3.5568,-3.9677,3.0626,-2.0292,-1.1014,-0.5052,
27.405198,-0.1260,0.4721,0.1861,-3.5568,-3.9677,3.0626,-2.2390,-0.6496,-1.2759,
27.406606,-0.1260,0.4721,0.1861,-3.6069,0.1977,3.3881,-2.2390,-0.6496,-1.2759,
27.407536,-0.2511,1.0177,0.3830,-3.6069,0.1977,3.3881,-2.2390,-0.6496,-1.2759,
27.443464,-0.5595,1.6634,0.4150,-3.6069,0.1977,3.3881,-2.2390,-0.6496,-1.2759,
27.444960,-0.5595,1.6634,0.4150,-2.6123,4.8878,4.7371,-2.2390,-0.6496,-1.2759,
27.482326,-0.5595,1.6634,0.4150,-2.6123,4.8878,4.7371,-2.1323,-0.9364,-1.5028,
27.484036,-0.5595,1.6634,0.4150,-6.1102,7.4869,2.3023,-2.1323,-0.9364,-1.5028,
27.522389,-0.5214,1.6775,0.4244,-6.1102,7.4869,2.3023,-2.1323,-0.9364,-1.5028,
27.523983,-0.5214,1.6775,0.4244,-5.3889,7.8650,3.1670,-2.1323,-0.9364,-1.5028,
27.524993,-0.5214,1.6775,0.4244,-5.3889,7.8650,3.1670,-1.5592,-0.6505,-0.8187,
27.560509,-0.5214,1.6775,0.4244,-4.2947,6.8128,0.7550,-1.5592,-0.6505,-0.8187,
27.599065,-0.5214,1.6775,0.4244,-4.2947,6.8128,0.7550,-1.0366,-0.2482,-0.2698,
27.600215,-0.2228,1.5265,0.5232,-4.2947,6.8128,0.7550,-1.0366,-0.2482,-0.2698,
27.600981,-0.2228,1.5265,0.5232,-1.5861,6.7001,3.1842,-1.0366,-0.2482,-0.2698,
27.638032,-0.1376,1.3426,0.4828,-1.5861,6.7001,3.1842,-1.0366,-0.2482,-0.2698,
27.639372,-0.1376,1.3426,0.4828,-1.9262,3.4420,-0.4587,-1.0366,-0.2482,-0.2698,
27.677217,-0.1376,1.3426,0.4828,-1.9262,3.4420,-0.4587,-0.5120,-0.1409,-0.1759,
27.678665,-0.1376,1.3426,0.4828,-0.7610,3.9622,1.3904,-0.5120,-0.1409,-0.1759,
27.716650,-0.1376,1.3426,0.4828,-0.7610,3.9622,1.3904,-0.3063,-0.2101,0.0483,
27.718014,-0.1376,1.3426,0.4828,-1.5197,2.5590,-0.7220,-0.3063,-0.2101,0.0483,
27.718898,-0.1974,1.1896,0.3731,-1.5197,2.5590,-0.7220,-0.3063,-0.2101,0.0483,
27.755364,-0.1974,1.1896,0.3731,-1.2904,2.4139,0.4867,-0.3063,-0.2101,0.0483,
27.792720,-0.1974,1.1896,0.3731,-1.2904,2.4139,0.4867,-0.0765,0.0192,0.0857,
27.794099,-0.1544,1.0263,0.3974,-1.2904,2.4139,0.4867,-0.0765,0.0192,0.0857,
27.794867,-0.1544,1.0263,0.3974,-1.2930,1.6117,0.4605,-0.0765,0.0192,0.0857,
27.833193,-0.1544,1.0263,0.3974,-0.5638,-0.2921,0.2175,-0.0765,0.0192,0.0857,
27.872284,-0.1544,1.0263,0.3974,-0.5638,-0.2921,0.2175,0.0064,0.0845,0.3178,
27.873544,-0.0339,0.8748,0.3143,-0.5638,-0.2921,0.2175,0.0064,0.0845,0.3178,
27.874486,-0.0339,0.8748,0.3143,-0.0327,-0.8394,-0.5501,0.0064,0.0845,0.3178,
27.911186,0.0611,1.0406,0.3792,-0.0327,-0.8394,-0.5501,0.0064,0.0845,0.3178,
27.912410,0.0611,1.0406,0.3792,0.5169,0.6738,-0.1120,0.0064,0.0845,0.3178,
27.950063,0.0611,1.0406,0.3792,0.5169,0.6738,-0.1120,-0.2548,0.0652,-0.0142,
27.951532,0.0611,1.0406,0.3792,1.0732,1.0675,0.0484,-0.2548,0.0652,-0.0142,
